time_s,acc_x_mps2,acc_y_mps2,acc_z_mps2,gyr_x_degps,gyr_y_degps,gyr_z_degps,acc_norm_mps2,gyr_norm_degps
0.0,4.500746094970186,2.058266640962682,13.9320406109871,31.59383373576702,-127.185318747606,16.601549788844846,14.78495629222092,132.0980207665691
0.0048828125,3.975296829151638,1.7706076282107739,13.394230503414821,30.374598513753487,-133.50133212793344,18.764281355754896,14.08344585076924,138.19305398464294
0.009765625,3.5703973518535967,1.4972022602068717,13.115583073075266,29.583721087590558,-138.82095441410618,20.800629644032323,13.675082127900737,143.45424403418636
0.0146484375,2.9926416561935247,1.2626207093254558,12.977188528562229,28.93470469679696,-142.70138202378487,22.710486391297323,13.377501158431993,147.36576182926052
0.01953125,2.1555368646367836,1.0910704694214584,12.98331972012613,28.58511057922265,-146.20885537486302,24.189928170591628,13.206186614578327,150.9280973237004
0.0244140625,1.2611701521459462,1.0206499066876698,13.162992861849926,27.591355875310942,-149.4541556805272,25.05781870533238,13.262603721207894,154.0315612057692
0.029296875,0.0784736697591594,0.8883133052876238,13.63313377088078,25.813337493987696,-153.87831975957556,26.052835680046147,13.66226903043292,158.18854551319504
0.0341796875,-0.9505411439521546,0.7652682085070004,13.915802227491623,23.733700140995367,-158.60847790736065,26.192303289761217,13.969205973567652,162.499152422698
0.0390625,-2.258196000824762,0.5947223373692507,14.52187054389293,21.38988657960731,-164.9614604447433,25.785057461464127,14.708428465689053,168.3290820632076
0.0439453125,-3.3981540529819805,0.31800412934023664,14.823203942423282,19.3395184289855,-171.19011607764023,24.336169115302408,15.211047061683441,173.98943054952966
0.048828125,-4.547666159064465,0.07015625844911438,15.119729394018687,17.489386767691094,-179.48919980523698,22.95309147143275,15.788996369093649,181.7941030515845
0.0537109375,-5.634917167906637,-0.27879706566379076,15.407341664287875,16.817963634737815,-187.6169663596797,21.32167546951382,16.407809008307378,189.57210715623702
0.05859375,-6.722073265589474,-0.5604374879385093,15.638370245084728,17.2679513973711,-195.5105821292028,19.625635325866682,17.031118080977272,197.25043835668814
0.0634765625,-7.8623467719803335,-0.9285414741255348,15.855247357375827,19.518339454485453,-204.8099879642321,18.23467847102031,17.721951212990458,206.54442680428565
0.068359375,-9.02627853236853,-1.0754167042235538,15.949257319482337,22.165693076399243,-214.92871312384054,16.538650401348296,18.35780581318696,216.70070750167218
0.0732421875,-9.776398288845042,-1.064392672248546,15.95066496922887,25.106577547542333,-225.05157434599604,14.719330987573041,18.738586078556025,226.92556060630073
0.078125,-10.218875552767285,-0.8809167182786799,15.501543045515849,27.30272513656857,-234.0370961399871,13.205675336066266,18.587610621579863,235.99404871861105
0.0830078125,-10.372995115175275,-0.7701125493783781,15.06324390905076,29.746383997824545,-242.40214744066586,12.363320317700804,18.305557026807872,244.53322909999454
0.087890625,-10.392468404393908,-0.4817052337545601,14.263007580054424,30.824525840194962,-248.11775590165223,12.008143440559085,17.654144688917732,250.3133390289734
0.0927734375,-10.277376634625863,-0.24643927163338988,13.505801983652129,31.235918193016076,-251.56914281814707,11.893946058449218,16.97326986841895,253.77979067778304
0.09765625,-10.17658433109698,0.04655835626400801,12.739001483554592,31.443322794931213,-253.32940257410442,12.755823145780692,16.304821223382753,255.59182260210386
0.1025390625,-10.056714620350746,0.2048998434778916,12.113670799441872,30.10739942912945,-252.4352962157966,13.492513120182661,15.745491835388451,254.58217177610928
0.107421875,-10.205817848227278,0.41667575061808254,11.646954071626027,28.680739596603615,-249.97384795684596,14.286693995478357,15.491412969090769,252.01908481597374
0.1123046875,-10.220422035551946,0.5224230877375721,11.275117242888607,26.274145772289092,-246.37110744899238,15.325367840389623,15.22689138689447,248.24165690139455
0.1171875,-10.41274315559813,0.7342905158574181,10.859945476793758,23.75952708282921,-242.1388892039195,15.934229210119566,15.063293741578137,243.82300230418852
0.1220703125,-10.580807776270245,0.9076950472131977,10.708334957020451,21.251198796437695,-237.5947027809467,16.909372239176054,15.081307670386625,239.14176362437226
0.126953125,-10.691158791137765,1.1194482602796574,10.486346278895214,18.866836861085996,-232.67653289983707,17.883333744778508,15.017240058867841,234.12419806858696
0.1318359375,-10.9738308738618,1.5720076729147967,10.451201070131358,15.259241758066066,-226.9870872261678,18.429646241516988,15.235608815539347,228.2446803039196
0.13671875,-11.381347453778424,2.2171080130294794,10.17523381995421,10.710783121145411,-221.09178512186895,17.75349878144411,15.426795555001307,222.061894620454
0.1416015625,-11.634355632557737,3.1937051465303488,9.762825750301385,4.171834494458267,-214.5387337415234,16.468502654126667,15.520011281521356,215.21032516618342
0.146484375,-11.791845894280515,3.9681188386266024,9.200779154021006,-3.714347565488761,-207.65252387489636,15.186350807356733,15.474105265022306,208.24022738245307
0.1513671875,-11.988645140362806,4.401169493852093,8.615793404537573,-11.603007945018327,-200.95490779714373,14.149755235473613,15.405512039683463,201.78632345715232
0.15625,-12.435968326155416,4.685592475627841,7.926573336562888,-18.1104510302495,-192.84212020150315,14.6984582029561,15.473805282370291,194.24756480809253
0.1611328125,-13.052124232830499,4.763542342664511,7.204147748310627,-21.39250445610074,-185.4054307492096,15.853076831578363,15.650847498429211,187.30758939037193
0.166015625,-14.151006997542414,4.130649640816276,6.335378898981706,-22.861217120505174,-179.07078568630453,20.190439543631225,16.045257595106808,181.64976020767634
0.1708984375,-15.433762827879258,0.7955842199609798,5.8855948335015285,-15.20752650344001,-173.7112023062654,32.52874378756243,16.53705583900648,177.38367974940078
0.17578125,-15.762951806267026,-1.9113094260469263,5.4009691503804955,6.16524126804585,-171.70305151638772,49.55459344963787,16.77182819886236,178.81724142792103
0.1806640625,-15.270820879800873,-2.7251513667838956,4.346709598231419,31.116275485913878,-167.12555278736892,68.89158459818428,16.10957183311225,183.42634331809515
0.185546875,-16.501787679433964,-2.2373421830332707,3.3808493167862435,45.87478459419064,-163.71669940255885,89.48220996829082,16.99249360052587,192.13203643755116
0.1904296875,-16.882686157664978,0.1434466145191939,1.7561225989460165,46.86824215848572,-159.7164617455387,106.24881026626542,16.974381738724933,197.47098510550217
0.1953125,-17.442981809259642,1.75520992029746,0.43799639688756814,33.900737498622476,-155.47783742480178,113.62068968193685,17.536539484920045,195.53076243149718
0.2001953125,-18.0861707487103,3.0112171559566314,-1.1383803958609793,6.5401298425353565,-149.50820020059592,116.67808188937383,18.37043578790422,189.76103398475178
0.205078125,-17.827710444981594,3.404684612942528,-2.991119664528548,-27.18090867187408,-143.1763825190951,114.4851834090302,18.3947257079643,185.32440618462073
0.2099609375,-16.514731418100823,2.372743180751472,-4.831435580410552,-58.492410463686966,-132.9847266994344,108.84772174983733,17.369773567363108,181.5327137110711
0.21484375,-15.32434602244971,0.27348446942486276,-6.528857042721672,-83.84092594231768,-117.67307404329328,100.67214636396038,16.65942223053018,176.0997849833731
0.2197265625,-14.292869246489213,-2.1091219711398104,-7.835997200650146,-95.9177708300049,-100.11242738109996,91.8444765069175,16.435855892376846,166.3073201695075
0.224609375,-13.70834081721511,-4.683121367855765,-8.528566796727935,-93.7514169838923,-78.37182337126463,81.3775612414949,16.810314848724378,146.81205113558494
0.2294921875,-13.37680223247275,-6.732367339520516,-8.68724027228894,-79.81897852301243,-56.49126767111294,70.63455759627152,17.312762676979354,120.62990252158644
0.234375,-13.475376662349134,-7.818961376251322,-8.525386625486853,-57.55311593656958,-31.971065755857094,57.84254532484267,17.759621344767567,87.63715107892335
0.2392578125,-13.767548609244237,-7.621128211777499,-7.934508752136431,-33.37111030744485,-8.664410543476759,43.45568613154494,17.62337706190228,55.47161139160201
0.244140625,-14.19717363996216,-6.581481052560669,-7.350776883106589,-15.118872120950668,11.719990711744776,29.94818610691489,17.289000925260712,35.53635219866346
0.2490234375,-14.360492655991688,-4.777715816434106,-6.758150906368327,-4.7507374821554835,32.16155659303171,15.419377188835039,16.574767612809623,35.981834611407805
0.25390625,-14.514005104184822,-3.031618166670415,-5.8831724114745105,-2.7800061510007046,49.65097268787479,3.000830902727684,15.95176386785875,49.81919819867092
0.2587890625,-14.84183029601417,-1.7420595863153163,-5.106718516136495,-9.010327713077405,65.63236626561705,-9.147786492276916,15.792190226216515,66.87656917657665
0.263671875,-14.921255529635022,-1.2031307210439182,-4.209961079880173,-18.599172004157722,80.77582423801901,-18.040453130190354,15.550407146010333,84.82995302199677
0.2685546875,-15.04942613375894,-0.9478327403814734,-3.2986859164449167,-27.580552338662034,93.08040485752483,-23.62106503314704,15.43583307225618,99.91297888185782
0.2734375,-15.019512310246789,-0.9909635031528009,-2.2920066550887315,-35.222046839518725,104.4212826774364,-27.916934538466666,15.225670862369471,113.68268159043119
0.2783203125,-3.5714098753763133,6.576863532724893,1.8094903400635474,-64.30964412209102,117.64399569990162,-33.2754378276608,7.699633609257346,138.14157525513812
0.283203125,5.55120437619258,3.952857275428362,-0.557648235496695,-70.86942682065195,182.15845002079354,-58.76684003012501,6.837537730844281,204.10222453219853
0.2880859375,6.764392492078711,8.145825089080324,8.651750247601875,-104.03905041985293,176.15934985185808,-84.88812468047199,13.673487284363869,221.4999644791425
0.29296875,7.640983092175986,-1.4045779289361247,17.076148882586313,-111.17739511789607,186.51049751922594,-93.84293592973783,18.76039238485239,236.54402443093517
0.2978515625,-2.4187400337354936,-2.0538965702177805,18.369368870746793,-88.39981003637351,192.02234388212227,-80.93121869233369,18.64141913003161,226.35584623216005
0.302734375,0.2033550384648867,-3.3493520863841395,9.767639004895909,-62.672886782222015,188.0781879951659,-46.258352422751166,10.327937083474065,203.57094759820134
0.3076171875,-0.40713395956331627,-0.23811900142091463,3.5407209628916907,-40.802278426171604,203.49781615888364,-15.300458189580134,3.571997152424405,208.11124699788024
0.3125,-4.671274887179847,0.1690388182868916,3.6717312789299714,-17.998408143237015,222.81387227968963,8.781716841637717,5.943988036525448,223.7120536016043
0.3173828125,-11.582112043927498,-0.9036664548183886,9.325236062242483,-3.1892790969050413,225.9202827377284,27.04040068501323,14.89704534718889,227.55511183592242
0.322265625,-16.515556453149802,-2.1096784589775726,16.15401448849901,5.825566604392619,208.03332684923953,35.68867753003685,23.19841658932971,211.15275042032414
0.3271484375,-17.957803487638905,-3.164429692926638,18.623843059210884,5.854491373061019,179.10494270115979,32.08357355216479,26.064225514606207,182.0500240623443
0.33203125,-16.217439482365165,-4.58663220327527,17.082538247596645,5.273897238065255,153.5269851054461,21.556576945584922,23.996992547252677,155.12264553332136
0.3369140625,-13.41256359891025,-4.9770316526762475,14.974546200523896,4.129504056412512,140.30847044245215,7.694079925163019,20.710015458182987,140.57993650427926
0.341796875,-11.271320152549425,-5.6161527504799755,13.343916629515913,6.339730498991983,133.6717974360186,-3.438001311669055,18.34785929511838,133.86620733252613
0.3466796875,-11.264983503258176,-5.255379100196166,13.921630294749939,12.705150017316116,127.88537112041904,-5.951403110513752,18.663618429424577,128.65266488710463
0.3515625,-12.217674590329619,-3.7627154568768004,14.502089002015271,20.10449795927612,116.30134977245545,-2.7586432738835063,19.332361092918212,118.05848088893107
0.3564453125,-12.184651011658152,-1.7767996300221611,14.018172109974277,25.215859829195548,101.55359173236722,1.0608755981484133,18.65829270072719,104.64271134534268
0.361328125,-11.1095727386609,-0.07188556769175185,12.885689960141704,26.781559459245656,89.49264519941065,3.7812004868398925,17.01378205218747,93.49055005174793
0.3662109375,-9.131694668376799,1.2561844720279784,11.471083653877477,25.744068604254075,80.35896963205109,4.29677668668973,14.715692547022057,84.49132120236213
0.37109375,-7.466807903211057,2.166566402323521,10.545145107181023,23.888788917854047,74.99617824545942,4.8660425133072,13.101424181005516,78.85923761442169
0.3759765625,-6.024306869691084,2.3609300632979875,10.066595253210698,20.883567164309152,71.08978386269943,5.985512746519409,11.966729044143834,74.33510012094071
0.380859375,-5.049074729850479,2.387781798795914,9.214832922442127,18.44369041215938,69.24137076057697,7.4053359038864235,10.775333096234151,72.03732463572375
0.3857421875,-3.8582515572355844,2.1064485483671906,8.308248993600483,15.9895162021944,70.15258814587727,7.9000235622845265,9.399480406144399,72.38411859123498
0.390625,-3.106300420222229,1.1142922994000157,7.754037130621366,13.795497182516588,72.69322798590748,7.165354347429495,8.427089737995543,74.33682425587048
0.3955078125,-2.9453120596059574,0.07045562720560364,7.7382128992316215,13.978649131574548,76.70369407305766,6.053160965251729,8.28008248737293,78.20166285743633
0.400390625,-3.7249840539213737,-0.41850417533556944,8.163861797773544,13.372226984929096,79.41440723090332,3.7823717338481315,8.983278432726445,80.62115644361118
0.4052734375,-5.1097441078459225,-0.7139139576110324,8.882740687926677,13.442929282038351,80.42390242004811,1.5138217322735963,10.27240186691925,81.5537128792332
0.41015625,-6.51725081304105,-0.4851024201579231,9.642699891002659,13.820778376587898,78.60665657910356,0.16969839730831615,11.64867132792706,79.81258779807816
0.4150390625,-7.793844565199946,0.3685488508933379,10.049132318624736,12.87563381139225,74.98953903255568,-0.4316475997185004,12.722613792740063,76.08810176374887
0.419921875,-8.512924548832768,1.1730359693148438,10.30760587801017,11.612544111324125,69.93510303823574,-0.722487728002087,13.419859786742029,70.89634550682575
0.4248046875,-8.310202984011857,1.470816610738819,10.350165345505404,9.813506524352292,64.32055133164666,0.21416587898155143,13.354725673603552,65.06522958488824
0.4296875,-7.497008960363585,1.8923928559568033,9.943622432536298,8.327408588856331,59.76455791323334,1.576343047840775,12.596107381008123,60.36251298425585
0.4345703125,-6.901532471276264,1.794999488708786,9.457314581590586,3.70062780252248,57.643279936402514,0.675325401758392,11.844575666173583,57.765893331251505
0.439453125,-6.77913481612493,0.6887242144559207,9.464974081344948,1.1937654599318253,55.680170096784664,-0.5377676186062318,11.662621671790042,55.69556186979193
0.4443359375,-6.973170916664948,-0.13318710479753532,9.696377649550195,2.4305078985715167,52.1511217001894,0.3862861694996453,11.94414463076376,52.20915705350672
0.44921875,-26.028089363833633,0.7225281019523506,21.886386021595783,10.052221195157603,50.294129944472736,-0.06592743156413709,34.0146641299914,51.28889747551723
0.4541015625,-17.967383190401137,-0.010242825190433453,16.317098600154974,-8.009335732620878,-8.963553388467101,3.0081314734129503,24.270860519424453,12.391271249838542
0.458984375,4.4043989093028815,-1.242495503586418,3.9542573253477724,5.3014837535764725,6.109156881730552,4.78184685027844,6.048030739320643,9.39646673460556
0.4638671875,-4.94814038387259,-1.0991004686604837,8.04244163894708,7.10003719883445,21.74774125311763,4.614555638569657,9.506470565598478,23.338142633441127
0.46875,-6.538578293355314,0.024945780855181097,10.939533844722087,6.033733700555532,10.799560700103116,5.253072866252787,12.744686309601338,13.43991176394371
0.4736328125,-3.9233789618207817,1.3850772506743025,7.5335402018221895,4.761441922551629,12.323081682831594,4.275741082770822,8.606135569514608,13.885662863200515
0.478515625,-7.045353617399691,2.3337169379886444,8.726533676547207,2.3053692010066755,13.36816995425172,2.6254984070444727,11.455812164520442,13.817233332476572
0.4833984375,-6.194085722201951,0.17781571669158006,9.130024173672096,1.1013173658892748,8.18522394958115,3.1923120941652807,11.034294620632778,8.854470483984915
0.48828125,-4.8423826224155935,-1.3781034536502885,8.589068541614711,2.755205400912951,8.599221306345948,3.1877798231164,9.955899607940552,9.575996244642226
0.4931640625,-5.681427537051409,-0.5204716232723615,8.955072879418303,4.103500253982737,8.264889781867362,3.55210671846388,10.618043126918021,9.887597260214847
0.498046875,-5.6648930011545255,0.5277694003228289,8.618932311801485,3.912658609681895,7.389255204496713,3.860972312885877,10.327417269088256,9.209619811586737
0.5029296875,-5.318533189991659,0.6809650141494541,8.42257887160998,3.724345867859076,6.702755675798226,3.863210589629837,9.984505170113803,8.586156407421916
0.5078125,-5.434749719377437,0.22919318591503804,8.653511230268796,3.303883894576374,6.208672588848202,3.68170681178132,10.221168751230516,7.938402178793486
0.5126953125,-5.257136219775977,0.12305505444291963,8.607487659211325,3.1203813078506557,5.900380926459799,3.009409557760818,10.086697555849469,7.321736165012812
0.517578125,-5.232546146836795,0.4259389591842825,8.456433754044735,2.3495619350434,5.535578862552575,3.073587202970702,9.953503655109326,6.753518558826133
0.5224609375,-5.266017931452647,0.5510138638058378,8.361952723837016,2.2844386543269355,5.288566720615523,2.2784329942428836,9.897313498529403,6.195066975670213
0.52734375,-5.213327777510342,0.4739689199505507,8.343538997384826,1.6901350193956086,4.921297436477272,2.342116210487528,9.84977543163911,5.706245103874668
0.5322265625,-5.232627246735691,0.4307316959824305,8.37647092321112,1.3292089900571467,4.553045770415763,1.670370943562806,9.885908295377112,5.028634150129487
0.537109375,-5.136288175491996,0.5026837505860318,8.372030429325372,1.0914888302958343,4.431629305749611,1.54875888694888,9.834888951297422,4.819682589148633
0.5419921875,-4.943867278387978,0.5407915882913101,8.35867694854671,0.7361016487464821,4.3760054081694735,0.9986486908232451,9.726343585255876,4.5484687728178095
0.546875,-5.064267562716195,0.4544607898623833,8.377153173327681,0.2649585567621826,4.319994800414428,1.1225038990404042,9.799491611593727,4.47130552699881
0.5517578125,-5.04483130502652,0.5505975738292361,8.353512113090359,-0.08430606837356774,4.640584940352342,0.449045499591194,9.77418258515921,4.66302240638973
0.556640625,-4.967594897784932,0.6802912522071347,8.34415880472498,-0.2565526501397216,4.9577140137173945,0.020021324322698455,9.734720407633588,4.96438801440129
0.5615234375,-4.92924106693957,0.7186541294502216,8.16552585969852,-1.4866811589868802,5.289684624969701,-0.16115038003738524,9.565024506982962,5.496994974084806
0.56640625,-4.914928058292473,0.6368904157902618,8.236313201463268,-1.9571405677302673,5.360756843416439,-0.5888145953299934,9.612439980177468,5.737143519536997
0.5712890625,-5.016154216335349,0.5457061596036047,8.212556153629745,-3.3047864843320385,5.694587038106753,-0.7697911580740411,9.638759096025275,6.628914969182071
0.576171875,-5.117406477965409,0.46413111447608824,8.146450428885435,-3.9580309201331683,5.3925043101614065,-1.1958565240709647,9.631610526928238,6.7952324703429134
0.5810546875,-5.184521152111923,0.45948633513754056,8.3342902232499,-4.495169827665534,4.962621724788329,-1.3773340107369019,9.826025686625949,6.8360233425602255
0.5859375,-5.27620106581408,0.27213403195102565,8.447174082067782,-5.034550802601083,4.407738033310049,-1.6195657809358937,9.963287840417,6.884609623866674
0.5908203125,-5.276403872713215,0.1663472554342395,8.489732382963195,-4.868437697318494,3.7784755271685846,-1.4959968526238638,9.997182861771982,6.341653530834384
0.595703125,-5.367882518572387,0.11842963419697995,8.489438381637177,-5.233105738421605,3.0950351873734845,-1.5545671304357547,10.044837099080578,6.275453564772223
0.6005859375,-5.39660958312806,0.1617673876443113,8.50803042735723,-4.599449141677801,2.2704687903811207,-1.3092578900458482,10.07651454786085,5.293780988822892
0.60546875,-5.3872784380132215,0.041527413823142456,8.508334437687314,-4.435002347997163,1.5153229243542348,-1.0016244004703938,10.070563459822738,4.792567248503822
0.6103515625,-5.3536811760311105,0.012612034187470846,8.513247335495505,-4.215285216204334,0.5717989595172929,-0.8161784735960109,10.05671126130792,4.331481363785072
0.615234375,-5.3538712873247425,-0.03068306224469013,8.43809239604446,-3.9284186686012514,0.19270665796637468,-1.1220304677097594,9.993311888244675,4.0900564130960815
0.6201171875,-5.363322465957416,-0.006601663910891235,8.532059597504166,-3.7004548852258146,-0.31343463938581256,-0.6316347943513142,10.077763265287237,3.7670373165385205
0.625,-5.310321051548707,0.06542102270506205,8.475696318753737,-2.9352551120953714,-0.2617586215029527,-0.7561535013421323,10.00206067110517,3.042368857749682
0.6298828125,-5.1612792651834525,0.07475097027796784,8.433998337257075,-2.7063198748281945,-0.6412733402821178,-0.6945782404179812,9.888211128087084,2.8666771171355903
0.634765625,-5.27657443992302,0.10382803989271477,8.471056320992172,-2.7059707442362138,-0.6416518318706226,-0.5721284144615045,9.980571791001672,2.8392473764431743
0.6396484375,-5.175804429370382,0.01707810299164483,8.466982696855712,-2.115943473750533,-0.5248949071804496,-0.6351574141446032,9.92366057166134,2.2707171528911974
0.64453125,-5.156603641670387,0.007422413450628877,8.457681461172253,-1.8796294885155422,-0.5298248771920863,-0.20711653176445208,9.905705018228968,1.9638275566655397
0.6494140625,-5.190285216089948,0.06035749748935364,8.3304360932212,-1.2323013823494429,-0.5400518417701312,-0.02489424715333552,9.815236581718628,1.345675448345919
0.654296875,-5.194824608966156,0.17577863503957047,8.325460474874738,-0.6977418704706175,-0.23477920891843693,-0.027041346858478314,9.814804784872608,0.7366791901418985
0.6591796875,-5.117746476607625,0.16123824818046922,8.476326301755075,-1.1648522796632206,-0.040123508870820265,0.03469235182787616,9.90279931864374,1.1660592989535556
0.6640625,-5.127472771225098,0.11316843194927213,8.481092212788349,-0.3973095830251766,0.13667424600446157,-0.028921597120848883,9.911241558728342,0.4211546189519337
0.6689453125,-5.141940015536729,0.13241577856324868,8.405738047223346,-0.3899917479563485,0.5111872075037113,0.33762506920140317,9.85461887544762,0.726220773554945
0.673828125,-5.180203686817461,0.21424067619572262,8.414798104219736,-0.3947247453281973,0.26128044991161525,0.15453039907695587,9.883786543579038,0.49795054204138545
0.6787109375,-5.161083999016361,0.2093777234528547,8.325534037702662,-0.44837818410603403,0.5754739458456737,0.09276995696829693,9.79771116582473,0.7354043263710879
0.68359375,-5.122497756171162,0.23336049130447,8.377383426396538,-0.03383395081009637,0.6935996707904385,0.3974934376886695,9.822168470034702,0.8001414078483758
0.6884765625,-5.040946961747411,0.18510432160548923,8.307298880504016,-0.21227987212147503,0.6347947630268701,0.0307761439094534,9.718879800216214,0.6700554501742265
0.693359375,-5.132334043412055,0.1756577265512879,8.306921029584146,0.025579171057717075,0.7559822467238585,0.2136037361998508,9.766096731131165,0.7859961879501632
0.6982421875,-5.0650642867985765,0.15629514496746155,8.3025537374359,-0.026545215698346444,1.132194302956294,0.3352635689200999,9.726854731348341,1.1810885863338967
0.703125,-5.108218949670761,0.18523898608589667,8.34933273257125,0.028611957758383554,0.9440726150846908,0.1518360605356255,9.78976871018551,0.9566326023916352
0.7080078125,-5.1370653554905505,0.1852939865817462,8.353909870913613,0.026804614990327776,0.8184132033191032,0.27461852088643796,9.808750402543257,0.863674701936829
0.712890625,-5.156347800916908,0.19493543364505547,8.2926649157432,0.20826252076335333,1.065272988642986,0.5797892909218932,9.766996153992752,1.2305833737519687
0.7177734375,-5.064840396759465,0.20920989694241465,8.387093873268999,0.27631691592333096,1.6284589357101102,0.45560956361376925,9.799985748186147,1.7134204439587546
0.72265625,-5.1131551655320076,0.1179293957561834,8.37767695552739,0.39778684662616565,1.813819945328787,0.6998319775171377,9.815484412924548,1.9844248451823163
0.7275390625,-5.141800437935066,0.2093502349412549,8.36794571291358,0.8717352644188681,1.9943075541077788,0.8206335245273111,9.823668088788828,2.3260748855488083
0.732421875,-5.175336009675856,0.3007658401481757,8.287647289271254,0.5181225251727932,1.9364506395474708,0.9442259271111786,9.775462162732401,2.215819178526128
0.7373046875,-5.170770936613677,0.21899735552299696,8.245518745320517,0.8085070304201634,1.7448489418068058,0.7603377544932796,9.73516365040089,2.0679204406531317
0.7421875,-5.170608602389635,0.2574807251867343,8.306574927800018,0.4599233428715138,2.0005848464753053,0.7605096966471467,9.787782009939956,2.189119505179894
0.7470703125,-5.156163556872917,0.28149144456288133,8.273663936596002,0.4541163126904297,1.688042815000563,0.5776248087378972,9.75288547017321,1.84102161595025
0.751953125,-5.228440299377159,0.2335320923363153,8.245235419627033,0.5087239371778973,1.372617883336912,1.0069636192067244,9.766014147408054,1.7767542397078981
0.7568359375,-5.247706547684496,0.1951075446351325,8.296969181815125,0.20951556154032455,1.12772367740736,0.6408924770992978,9.819174536007303,1.3139256563121107
0.76171875,-5.233400521941973,0.14699078690912804,8.292433884941127,0.5649603534447843,1.2471500238230129,0.8234036682508371,9.806862242869453,1.5976723643398016
0.7666015625,-5.166077442499188,0.11802374175873007,8.353930666654957,0.6278611825460584,1.497002003517619,0.7613043633374493,9.822954918393743,1.7929888445610975
0.771484375,-5.189880852372865,0.214248248711183,8.3630222505776,0.7521627498822301,1.8705970525076376,0.8824973295714148,9.844841630902874,2.200837038915271
0.7763671875,-5.165845185048062,0.24304318287150398,8.297221202791846,1.0499932627958721,2.0532740631776,1.1262800110355247,9.776957919142493,2.566500904674057
0.78125,-5.113020473951302,0.19966988191153057,8.325764901847615,1.054404149920163,2.303585200909697,1.1868447780587168,9.772471930357508,2.7976549852375068
0.7861328125,-5.170827183006575,0.15649807945026156,8.325607350544908,0.9424575027929739,2.6180858522304598,1.3088574982122565,9.80192242169049,3.075013434905043
0.791015625,-5.108084815917522,0.26217249296538914,8.306837318871226,1.0645939070191042,2.866388648329542,1.4303643669932191,9.7552453144381,3.3757201146568083
0.7958984375,-5.1177919898523845,0.23814042160900697,8.278629268176536,0.7777354873516866,3.245482162707008,1.7363727060362155,9.735718169283174,3.762049591778802
0.80078125,-5.016647623962125,0.28124159205792393,8.330709604343923,1.0235452575763864,3.9323238298832286,1.3053145564764552,9.728647014257234,4.26786383202697
0.8056640625,-5.002286601907893,0.23794130859291196,8.36378846139276,0.8562772798700661,4.435152531792716,1.549401615426197,9.748458582816506,4.775398844722222
0.810546875,-4.959018041620016,0.2522792709274449,8.326321294244842,0.33153800897544167,4.757131300634974,1.2438167710116548,9.694489726780239,4.928214263069967
0.8154296875,-4.958865479437886,0.30037470014586415,8.359138037984334,0.28703542191072273,5.571542232927661,1.4255668520832177,9.723978637457254,5.758186610078425
0.8203125,-5.021334692999506,0.34376127061238054,8.307036961627976,0.3510164739285863,5.884013041827542,1.363476875368003,9.71281817971215,6.050114976678472
0.8251953125,-5.012091341713175,0.17063028227910307,8.34037782088141,0.3719158912762058,7.073185514471501,1.605440940276026,9.732012972964911,7.2626245507411165
0.830078125,-5.03628849645959,0.016828250486687346,8.52402836460363,0.4539314713094643,8.386576033935372,1.9079920128667807,9.9006840455674,8.612847663507567
0.8349609375,-4.920855283174511,0.0983335426824159,8.37855848731028,1.2521375780803077,10.315614176671914,2.2074840615001787,9.717238729641362,10.62321656741369
0.83984375,-4.829401759673842,0.117405490270492,8.416540010953751,1.5694391931380671,11.625193808790154,2.5707585699163435,9.704383090205777,12.009041181446966
0.8447265625,-4.930072665299907,0.2137864766965194,8.48643578415536,1.9010774450777597,13.812435597544207,2.6869142479780077,9.81686882164309,14.19918944040388
0.849609375,-4.9399843196163085,0.069546690995787,8.529035954295326,2.1598027964716127,15.122763449067401,3.111654699493707,9.856608754026196,15.58990434303485
0.8544921875,-4.983369432030963,0.03596087208904579,8.505405014166815,3.0225482180868277,17.363773032323664,3.532622240009591,9.857848575395952,17.975422986381176
0.859375,-5.09410595878546,0.021723392288424227,8.415595175332678,2.991020634585544,18.929543057727628,3.773939743927046,9.837308045404937,19.532445469056682
0.8642578125,-4.882448398352348,0.03095426983886435,8.463528574521355,4.437042859863565,20.847808564332915,4.438941420595009,9.77090458765892,21.77206173541709
0.869140625,-4.882233588101428,0.14635690390438744,8.411543152446963,4.661792757616231,23.726875443348927,4.18638703578198,9.726853723459792,24.54022751387038
0.8740234375,-4.963244211572454,0.4398582695322542,8.443468522056618,5.168416563953691,25.84921305800657,4.179765457531509,9.804051666731686,26.690162696707972
0.87890625,-4.6941654539710465,0.26627025667688203,8.623738311839103,6.376597433028475,27.774538053773632,3.804285993577254,9.822166340982397,28.74993131895019
0.8837890625,-4.526288713282693,0.06879854599236028,8.662527332242373,7.776757069260315,30.573229531306833,3.6713201809971587,9.774016704393702,31.759705703291072
0.888671875,-4.699672964819412,-0.07993813200526914,8.73264279398505,10.02619255668601,34.86249942353482,3.6550527511555475,9.917276150664657,36.45926238767649
0.8935546875,-4.5121402701695095,-0.0706764544347559,8.70992505144661,12.264080114946536,38.3981914414835,4.19168836631637,9.809546339189906,40.526522406973875
0.8984375,-4.209895833545192,-0.42707534564019783,8.839006184729598,15.8970023788607,44.483395467462515,4.228525083679325,9.799675842283914,47.427498155937684
0.9033203125,-3.777036834074371,-0.5720783979026279,9.208049928865083,21.362552606453786,51.23316263071445,3.462608139970612,9.969025249831281,55.616411805686745
0.908203125,-3.714532726112336,-0.5962313542746427,9.250702921643999,26.569797630481524,59.92525034219489,3.7340264313746987,9.98642827770232,65.65769359404635
0.9130859375,-3.5183246870647156,2.5390167368319787,10.288771421193703,22.434026405629353,68.74435177376081,7.149473852675277,11.16620042588768,72.6648912332024
0.91796875,-3.585597962849227,0.6828470155872792,9.996250290240338,16.119594712439635,73.70887583622556,11.86928671865218,10.64179555634363,76.37879075988963
0.9228515625,-4.234966309408223,-1.2107312388511076,9.564883895430802,21.452936244495945,86.28293113426624,12.377251778861808,10.53032828109476,89.76730496248774
0.927734375,-4.3843488092568155,0.785196889950681,9.338817780818866,20.100241760261977,96.4451222139334,14.008657187388824,10.346621003040484,99.50841066902491
0.9326171875,-4.15580564945164,-0.3548627593214889,9.723258784030767,19.285359673604244,107.16643528207591,14.963908700884629,10.580094969101122,109.91127563819853
0.9375,-3.9707508830974123,0.5056325529655152,9.962037324908167,20.368178723359268,118.99026218498443,14.808950797071368,10.736140578303768,121.6258616539596
0.9423828125,-4.142457683129344,1.2080065613631672,9.729300533410369,17.733288570956677,130.24577754782422,13.747183817581988,10.643238434716807,132.1643566000021
0.947265625,-4.168272158317835,0.4867103679434675,9.683736968519257,17.492307072433032,140.40056264686172,12.927125152265074,10.553963305011905,142.07536508126228
0.9521484375,-4.1015871046731585,0.26054987915096894,9.599868018303576,18.908879517768455,151.15644966054484,12.284898221370376,10.44262270627425,152.82910954038744
0.95703125,-3.9672231791032164,0.11604268695909908,9.657207131853792,19.407943986055418,163.30406770087586,11.64136370609205,10.440975780334817,164.8648178549797
0.9619140625,-3.866609077697514,-0.04764455481551841,9.676816603856324,18.710028452303106,177.53298799657952,12.098013774470827,10.420830837702233,178.92565195903836
0.966796875,-3.7649553759139605,0.11571750189452039,9.921461165043501,17.031797108595043,192.96761677020078,12.247649981293689,10.612430031445884,194.10458048377865
0.9716796875,-3.80791028987685,0.13027553663040115,10.170504017557638,16.25414267936721,209.51762571681348,12.086179986930395,10.860769054829884,210.49443790021732
0.9765625,-3.6137986475901545,0.711855932562883,10.49929095675466,15.7819193802884,227.008248667691,10.206741464375405,11.126607305402649,227.7849677081847
0.9814453125,-3.8429768693849273,1.3518890903037013,10.595654096069142,14.22966306021967,243.64666872489855,5.699605467950776,11.351826331241002,244.1283842449258
0.986328125,-3.147324999304394,1.1099594890048692,9.710339726596075,14.599684321611361,262.5085445089728,2.1017679914518883,10.267831432410073,262.9226200827916
0.9912109375,-3.235507082965561,0.557046519200129,9.4430917161193,16.367118038514462,283.917611653999,-1.2001293373401507,9.997539100574413,284.391513710631
0.99609375,-4.360708405738442,0.41014479703432366,9.763017410355381,16.290467398240608,303.97346950107675,-3.698468813300418,10.700490900389314,304.43214048476904
1.0009765625,-5.019439830469125,0.4882982258752759,9.647100151874557,17.256701133521357,326.3901754712309,-5.041564650734039,10.885759170098838,326.88493044537876
1.005859375,-4.5157334146485875,0.08336478056518248,9.443249047776803,18.48023332950644,346.4811451020806,-5.2163412918963346,10.467748112041576,347.0128429203097
1.0107421875,-4.948030582076781,0.2380795897262411,9.539789200878396,18.534036289885073,373.5998176469185,-3.6299024158800646,10.749291443132769,374.076877711727
1.015625,-7.2668023889216435,1.0602637803949555,11.1316192147315,19.698980300956286,393.05304197568034,0.11424805880942618,13.335798535724596,393.5463844121203
1.0205078125,-7.333886400214955,-0.6660871164492261,10.735347344813214,17.310220170912473,404.0999526110291,4.380539926587313,13.018342613088105,404.494257749909
1.025390625,-9.754129620825777,-1.2041468017660628,14.70475783646146,27.800782814135125,424.5250156551373,13.729328233069728,17.686800649327424,425.6558080137103
1.0302734375,-6.923648903868336,0.27555817077556993,10.095458397533944,31.40275273527949,442.44161877787883,15.639775661467718,12.244636650626143,443.83028455580177
1.03515625,-13.186669227014328,2.096839710628465,16.93532427787274,34.89923415565837,457.10189511081296,19.261785428670787,21.565949792936575,458.8366980053451
1.0400390625,-12.116114400005388,0.5987336921863939,14.333076668361937,38.734626450268664,461.0488189304572,20.776473962511364,18.777534368742835,463.13933820582145
1.044921875,-15.954375343624358,2.126424312187207,18.663320905674144,50.82270563198579,473.0872081900114,20.711429214229508,24.645148005010707,476.25982116998983
1.0498046875,-11.482129367070547,1.3569001235604174,12.119040949125548,62.937947736375506,480.88006658942,14.973600787095846,16.74967540802042,485.21235807514535
1.0546875,-13.565733250562225,2.6159897084918877,12.417598860085457,63.69922097296787,495.93509381363384,5.504862770727133,18.576040542331423,500.0395099815867
1.0595703125,-14.788763310281162,1.1470867938673506,14.028630833547885,58.197104011789264,501.1594446248865,4.03541672615406,20.416312385544888,504.5433345513915
1.064453125,-15.083327660733282,0.43119510655298976,14.433376959141956,58.7610739942996,506.4087183340017,5.4904784379693705,20.88097394724793,509.83605127053113
1.0693359375,-17.02591625159479,1.5067871208951449,12.306173895539015,55.53346283970324,506.3836067685167,8.502182962847302,21.061674852234827,509.49053947447754
1.07421875,-23.597787780282427,2.6690631225197112,15.397799045134013,44.823556981331386,494.6845320392558,14.618397981250899,28.303210091959023,496.926186730881
1.0791015625,-27.130787332567674,-2.1077751009895054,22.245207721782702,43.36139595112438,462.67335837553566,22.47158384496476,35.14785347281718,465.24382778262446
1.083984375,-23.902775473818426,-1.0993211963399285,21.39171398812696,46.41236784312626,430.53926968722266,26.644901224412088,32.09605286938449,433.8526494016965
1.0888671875,-17.856826033860088,1.7265225513431728,21.016835071158045,40.73390749438577,404.7510876471325,25.92411076025936,27.632489437835652,407.62084550475106
1.09375,-12.68340221346301,1.1110446227282358,21.703875324210024,37.07354647132542,386.6345840775719,26.771475030659794,25.16269691330849,389.3295022575553
1.0986328125,-6.873918021457793,-0.6743122914448284,21.78485388117004,38.85955540278601,367.44256941585724,25.40413867309929,22.853562187458767,370.3639792511568
1.103515625,1.1608937956194965,-5.224873056920773,18.32137797927544,56.89803010478181,360.74904140987024,17.11113933523035,19.08716490013966,365.6091462166867
1.1083984375,10.62659383185522,-18.47441127983582,6.032037686219048,105.5058531052635,395.4201300090715,-20.06598800141927,22.1498046775071,409.7452966543161
1.11328125,-26.925410723000603,-11.095859062693684,22.924214735990844,118.12922951990296,362.3243803205478,-66.2571344287912,37.06231849470911,386.8119430735687
1.1181640625,-31.414970707419442,-6.895266144552992,40.687104180636055,133.5553297578739,248.7872935954337,-87.89939080212913,51.86410633914531,295.7337425196191
1.123046875,-28.71518851490253,-3.2699040518145086,39.223584603259354,138.36462322902858,137.15247550953853,-108.76263994849393,48.72108283980876,223.12526156460035
1.1279296875,-23.916449561016485,-0.5622082726627325,37.55959058749667,129.06881427450182,57.93685870046628,-133.2212248133274,44.53128656177435,194.3279011235051
1.1328125,-16.916692344044424,6.34403825016177,34.40513135653395,100.46311702407654,-16.705392741147683,-147.90615868994513,38.86044730626402,179.57767068108583
1.1376953125,-8.022501845853633,9.047754390693669,27.289350147677695,60.59656265150179,-69.90949430970959,-154.40422446153687,29.84846774733333,179.99984814267305
1.142578125,-1.802389212163391,8.977171233889047,21.320231975660153,19.97943968036606,-102.18962923489124,-157.27742726068055,23.203243345072465,188.62154558492142
1.1474609375,1.0190144151114406,8.341112654152475,17.378657468246193,-11.138534375006394,-119.58630454230753,-156.53868873615403,19.303634012436532,197.30512475185037
1.15234375,2.757367986956705,6.716670447260416,14.516227558337182,-29.737661677789855,-127.91049757442107,-151.50739247320826,16.230760999966172,200.49916180829644
1.1572265625,4.333457475809366,5.275410530505797,12.339335287896974,-37.81972624485356,-130.76832755463724,-141.67993590120193,14.1020567757742,196.4787302016207
1.162109375,5.233388156491534,4.239523254365453,10.934611081488368,-36.55777428258913,-131.01497871105312,-129.74051007054067,12.842415213822497,187.97339029904873
1.1669921875,5.306704575897445,3.0514475581876237,10.25088618951525,-26.97557096926077,-130.3323910514517,-113.90632731872249,11.93956085149762,175.18237636687687
1.171875,4.771027529397597,2.2878187652768047,10.16556736178235,-12.587420946128567,-130.78792738236046,-97.40874552302925,11.46017356657206,163.56157500898217
1.1767578125,3.789156405038822,1.8280374174375038,10.326899339939175,6.359125482627804,-133.25850073381875,-79.20360697030493,11.150976506056969,155.1498561128418
1.181640625,2.9530309081260504,2.02678789551869,10.4168789081869,24.744220330027975,-137.53629004752383,-61.42140004080541,11.015426769108764,152.64696493134159
1.1865234375,2.113475676368258,2.8026137243438187,10.510282821742463,38.04588875157233,-142.79378858727867,-46.68559825654914,11.08095068644813,154.974516597334
1.19140625,1.0874415850000694,3.925070948735247,10.804345885923142,46.24508183337612,-150.4782874143712,-32.91080809074235,11.546540658398827,160.82737287577459
1.1962890625,0.1620524300970123,5.008825241019822,10.887295020803695,46.94385311739315,-159.29087007152333,-23.277621677746396,11.98531535484964,167.68766891045567
1.201171875,-0.8309418830157453,5.895573926059475,11.13028472167642,40.83493694618636,-170.3771487211504,-15.397293862678147,12.622657973508021,175.87763229029918
1.2060546875,-1.9259603283349471,6.335289908205806,11.392620697971068,32.13045047242602,-181.5421688063991,-9.898029239196267,13.17714034892143,184.62907648935504
1.2109375,-3.060127789525739,6.4048294627816595,11.829609742648886,20.84029937190041,-195.92400039829656,-5.05788398915055,13.795864931163871,197.09417596780946
1.2158203125,-4.248272478378155,6.108956331671539,12.083744370327091,10.16786057424686,-211.94158437897167,-0.8272432562752674,14.190984621238469,212.18695744350345
1.220703125,-5.282936900824331,5.634871179971551,12.36245388491692,2.1251495071425706,-229.0009838339805,3.5829097114428645,14.57708686842686,229.03887028048112
1.2255859375,-6.25564925518673,4.929840861681959,12.63253321055978,-3.6544781612219275,-247.91110788693706,8.175593309635802,14.933766230972118,248.07279768310744
1.23046875,-7.243026082485216,4.186340906248105,12.775650271735579,-6.077545374843389,-266.6207460549065,12.881850994493355,15.271022129529664,267.00093795659694
1.2353515625,-7.936896836868374,3.5769153370206825,12.797474195839786,-5.35664428674619,-287.3210761117728,18.197292181969388,15.477855165380316,287.94658507924316
1.240234375,-8.414312989280077,3.111302309075508,12.580071192923102,-3.0424852360116903,-307.66826708134505,23.201808204709593,15.451183008399056,308.5568718878537
1.2451171875,-8.425265514177978,2.769798816842655,12.129277756254469,0.20098581584432215,-325.14578169690384,27.58465582863568,15.02585316574567,326.31385656722136
1.25,-8.21965302107979,2.538478950429856,11.603938539618595,2.9945945924365103,-341.4271342116384,32.14938591192079,14.444997777776475,342.95048999419555
1.2548828125,-7.821907597016602,2.3500235775769602,10.806565994540641,6.842252831181809,-354.46550556582014,36.336315456263364,13.545726922753014,356.3887468492452
1.259765625,-7.61630585718901,2.1667706554271673,10.172951139936519,9.681157068262285,-364.4160319139621,39.538379322374844,12.891545480624409,366.6824955701298
1.2646484375,-7.693790315721992,2.1043300604810877,9.82942675724331,11.683384204111897,-371.65975660290917,42.55192700050612,12.658603588143226,374.27014660008746
1.26953125,-7.934858748606149,1.922007979644349,9.654761596642103,12.34310210669146,-378.0640139861189,44.03592603502372,12.643991439499763,380.82005412356443
1.2744140625,-8.137313161575516,1.7684803934276494,9.546044581706312,12.068206033979425,-383.88636660357747,44.2349017192977,12.667689432071366,386.6149383961913
1.279296875,-8.34451269788382,1.5524834286050737,9.62086292840594,11.521153679611558,-388.2603470493815,43.38985809139203,12.829735010841548,390.84717455574184
1.2841796875,-8.888738668930282,1.0822787932381226,9.854672165708168,11.85847383639984,-392.39375905500185,41.684722775379235,13.315238112944611,394.77981414948715
1.2890625,-9.505007854826212,0.5593486548048435,10.271701939802266,14.018238784749535,-396.5532423342889,39.7298806436631,14.005923960170483,398.7849651634615
1.2939453125,-10.275739256483435,-0.13163623414299314,10.52852217101192,17.942568989695104,-400.6751077428513,37.46459209252872,14.712509115404607,402.822632690065
1.298828125,-10.978707628326653,-0.6255879803890088,10.761691138546883,23.222448854525283,-404.6930588315083,35.562916219812124,15.386272377381195,406.9158082543133
1.3037109375,-11.566349009142193,-1.0620873712903314,10.807114920272332,32.024246542815696,-409.0750165247864,33.22468800646765,15.865125019536148,411.66952936125404
1.30859375,-11.577392540407155,-1.4372549104303873,10.346988693217801,42.32197103392062,-411.97657952743134,31.06310006546295,15.593649179387373,415.3080392877014
1.3134765625,-11.294695355447077,-1.6735002556520642,9.958385102893027,52.290205239468015,-409.98613085685406,28.5839221272876,15.150583491586952,414.2945011258754
1.318359375,-11.276662031349778,-1.9861931352627935,9.564091672759995,61.549823057341634,-404.53599603935606,24.996000587498397,14.919112549505343,409.95433020680997
1.3232421875,-11.507169607447613,-1.9184107950038836,9.689920551124562,69.47552872703089,-397.6815566320676,19.509147861473785,15.165415017072881,404.1757989136481
1.328125,-11.867330994480664,-1.8984227350660414,10.069253793839849,77.20478809013441,-388.31323471679667,12.485558668404844,15.678884710920457,396.11063698861557
1.3330078125,-12.184632513136414,-2.0083744549622997,10.354997352701067,83.39873385450672,-379.0419655188991,3.813010253944464,16.115979883518477,388.12716921153793
1.337890625,-11.953979337638563,-2.181882803833114,10.572723856208423,90.38369073159627,-368.4086813648567,-3.579126947294192,16.107163757595284,379.35073244289674
1.3427734375,-12.052909098816237,-1.6237374623857623,11.196576802334258,95.09077583793045,-353.42051707084727,-10.6093961050706,16.530954999081324,366.14324631460687
1.34765625,-12.64672023393188,-1.1078548970797917,12.260451553948567,96.6594070082664,-339.63770760779175,-17.87397125383678,17.648953154650435,353.5764305502398
1.3525390625,-15.081807386114132,-0.8384042914146628,14.205714095791057,98.73817141214151,-327.052241160075,-25.014796824222206,20.735625111364886,342.54654428529625
1.357421875,-17.670588922699814,-0.4532684766893028,16.070101053628836,100.01906989774531,-320.22577682335276,-29.873719089508366,23.88939750309422,336.80974091847264
1.3623046875,-21.06639118934017,0.24597304567502695,18.00552965441965,97.7681398750737,-320.4885096577642,-34.64485735787357,27.71375901276644,336.8556963131754
1.3671875,-23.360875816300236,1.2940781997516846,19.343005715708195,92.7958347839768,-325.48087384345285,-36.88666591663483,30.357157762372843,340.45483153217
1.3720703125,-24.621700861217825,2.4603839778781413,20.26615856883255,86.43405568050213,-333.0309196344714,-36.30185601135538,31.984352826889573,345.97436922961657
1.376953125,-25.66710476843966,3.4963297708365912,20.621466365974157,77.53670862223784,-341.4952952715346,-32.09494764423077,33.10996019543816,351.65475048810066
1.3818359375,-26.7135842860947,4.176378692664174,20.780020437468046,68.46041381054977,-350.46585662949445,-25.559150942819493,34.100835382383444,358.0033730554433
1.38671875,-27.819348833595363,4.505357521269635,20.294765877944698,59.49575001038535,-360.32672967942005,-15.530271962490634,34.72883438816098,365.5356148694584
1.3916015625,-28.267361983507943,4.707943168041628,19.17774376584347,53.143626527350634,-369.23507750591807,-2.2645113342101166,34.48179720270578,373.0468007004786
1.396484375,-28.64787704427066,5.170005213175866,17.679500100817936,48.88915280488467,-376.17718929117376,13.134546879973753,34.058692530141805,379.5681010394962
1.4013671875,-29.15292618856199,6.060199544229246,15.723579163664906,44.299243156997754,-382.4970780923682,31.227621380110396,33.67269020419452,386.3180063503921
1.40625,-29.615453386357075,6.676188696760569,13.679086058025003,37.91111420364728,-387.22175200791884,48.58677117519032,33.2981076065457,392.09515699824004
1.4111328125,-29.91545561983641,7.152302999067293,11.0853502844407,30.158788933072742,-389.3626551460248,67.35207070516346,32.69518181722834,396.29424825569345
1.416015625,-29.8702487684666,5.449226731964647,7.94763448819743,23.454549745640236,-388.9558980040974,87.82421847211991,31.38615502772558,399.43697856631053
1.4208984375,-29.156294132261053,1.508910898799083,5.560817617708409,26.183974456041454,-384.37805521306524,111.99672967731611,29.72017819941279,401.21734422393394
1.42578125,-27.58437654954776,0.5821074199029355,2.8748502946279277,37.32613104659264,-372.401181850158,133.86302083088282,27.73988902090397,397.48608610650916
1.4306640625,-28.461372225603984,1.0593103381444837,0.3162203352077943,40.29268096063738,-359.6600295110175,150.78878268910265,28.482834175293736,392.066440736418
1.435546875,-28.36656045609496,1.9962347623463148,-2.7894360927196176,33.13655332485547,-342.61046447242944,160.32091138530316,28.573198264301055,379.7140452494206
1.4404296875,-28.426373505423772,2.630483379849784,-5.9186192876355115,20.267801647238535,-324.9528339623944,163.19203092520766,29.154900235697866,364.1933099897597
1.4453125,-28.176187666231705,2.1485028270481616,-8.964054133343138,1.2290818003089863,-302.61183075170504,160.43420439479743,29.645705967408635,342.51213802252624
1.4501953125,-28.015004466815583,0.46934400018087896,-11.659229108706736,-14.970094456061306,-279.05314591316585,155.76792917651264,30.34795516135341,319.93500860643104
1.455078125,-28.270556228327678,-2.396896645526937,-14.668726702027282,-24.631742487666948,-251.38973364769794,149.91239741272585,31.93964630435258,293.7298892170667
1.4599609375,-29.3362871267782,-6.271475007635438,-17.61370648138667,-22.38456327986579,-222.08323799298302,143.41063401926678,34.78781104307385,265.308581128629
1.46484375,-30.266627194886425,-10.026002943535778,-20.158598817664735,-7.957574801883379,-192.51764422033813,136.63159514107306,37.7221229926098,236.20871940652478
1.4697265625,-30.192521381180114,-12.402088521789604,-21.869688249719548,16.90299766419175,-157.51782176747426,125.64687945889014,39.28973671577916,202.19968798730213
1.474609375,-28.813758650035858,-12.4049037398025,-23.001809282037684,40.026682782627475,-120.03288011622575,109.45376212871746,38.899840032878245,167.30258123444233
1.4794921875,-26.1308516641893,-10.371019753254991,-23.30496502298927,55.28725572065701,-76.7693984053196,85.73277675224156,36.51713096809528,127.67274645078213
1.484375,-23.318991735380795,-7.370501554790981,-22.203461002758363,55.45148313880808,-31.383852075599002,56.225954230126966,33.03170218479431,84.9774739709585
1.4892578125,-21.371176138066648,-4.387325782923487,-19.760612583553588,42.12474965209227,9.508301152410965,25.35494016795458,29.435651967080172,50.07769278807625
1.494140625,-20.90093165282913,-2.4399008149499637,-16.324891378197414,19.40839082213423,48.287684267090974,-6.222038758403657,26.63276437873043,52.41278329276215
1.4990234375,-21.12580883109002,-1.6549110236031597,-12.809703958142322,-5.2171608709463255,77.61668632034599,-31.76961759824295,24.761402318104913,84.02902692071893
1.50390625,-22.03924126626932,-1.6619289211099766,-8.458640603722948,-27.754458918685927,101.07527033524593,-53.02238798102723,23.665138161325,117.46443670499873
1.5087890625,-23.588212946262825,-1.8409447288936471,-4.443889265893246,-42.7759774547822,115.75488041263837,-67.35283776465182,24.073658203534496,140.58940693205784
1.513671875,-24.176250548024992,-2.017093884095667,-1.1210061240911315,-52.1931914880002,123.88550470308367,-77.70089945513811,24.286136230952522,155.27130220803298
1.5185546875,-24.101864206798325,-2.319668967093553,1.4525534705513001,-54.435490812920044,127.95121242392297,-84.50509279613514,24.256764704812838,162.71400102412446
1.5234375,-23.542296702786423,-2.4501919074761163,3.247144570878137,-48.94700376419955,129.50983013556973,-87.77066633091019,23.89115154800357,163.92771317690205
1.5283203125,-21.526479141935056,-1.0733697781614135,5.430436117391496,-42.35419856181318,126.02116655482702,-85.4560601296253,22.226809563090814,158.0441418355362
1.533203125,0.9204788170092114,31.560943252807288,4.925414689982553,-219.92607084854612,156.3315302039019,-69.78742677155692,31.956222087846687,278.70649240763777
1.5380859375,8.616547594647253,12.745230453224174,12.365170704957176,-282.1287171073935,186.3776741782387,-142.1457810069093,19.737863063648643,366.7951383358531
1.54296875,2.0039304904236626,-1.2845404364334938,11.525210036936745,-238.24273390792737,205.75117050889787,-133.41869501221367,11.7684428850545,341.8971959587664
1.5478515625,7.3458803885395785,-10.997458516859465,18.671394030834414,-224.49596156363816,205.41704466626493,-93.2924315053343,22.88071256686413,318.27358793023063
1.552734375,1.2608570832336738,-7.338004162860808,9.324789036975831,-141.77968407630297,217.056925011556,-6.508832652287627,11.932634087350861,259.34061080892053
1.5576171875,-2.52100389373992,-7.0533677377688,2.619924947374004,-85.42757482220519,237.41181964836053,63.846233668345526,7.935330100652542,260.2663716317998
1.5625,-7.773672721308846,-3.0948218816460766,5.523057181085207,-24.64428481734019,261.326553465396,118.18686067248046,10.02557084073887,287.8663619735327
1.5673828125,-16.784422642207154,-1.2927789013820459,10.676693814763675,-7.112236938850259,262.1405556196402,135.40370795760168,19.93439017211983,295.1311893777334
1.572265625,-22.420026347997254,-6.325466181154494,16.988750878140305,-2.992362681219109,238.86570322317132,128.77191061811504,28.832043983272037,271.3816194493576
1.5771484375,-19.34262095411889,-11.6637810143014,19.5629192497325,-0.06630054562357139,206.50514286818995,108.32868182773274,29.881241314507857,233.19408597412595
1.58203125,-13.424474556524894,-12.733457475810507,16.496458769941373,1.8050895875657318,189.2093661398653,82.40608451372495,24.78892108090698,206.38363633862042
1.5869140625,-7.123851188468866,-11.947936677454097,11.852079175307779,-0.752442256319069,185.84563921096688,49.48131541082343,18.274961761428298,192.32152338692453
1.591796875,-5.466047726630924,-11.311934750770394,9.525199408495988,6.444788416756709,193.95464586560027,27.52401848064581,15.766006765414831,196.0038559414332
1.5966796875,-7.0068994368793645,-10.414488168318826,10.029147712914696,18.78235917159418,197.93789164836346,18.17505577462339,16.066798292567665,199.6560007078693
1.6015625,-9.666874701695242,-7.624765283165376,11.906770545903411,33.942125070759054,193.51716076113095,18.02239942762759,17.127658828760936,197.2961384429442
1.6064453125,-10.454485780037396,-3.425008998185259,12.439693299252557,40.5331998155628,183.4604694887359,17.354937981395498,16.606412283877667,188.68459933087763
1.611328125,-10.731624828740753,-0.279630621996762,11.641482837087569,39.86768704101756,175.7698994425612,15.599864780483333,15.83572187795074,180.90839063243575
1.6162109375,-11.19277063576355,2.02946964199865,11.460401877075979,36.99511343130777,169.9979001992488,12.008322104496797,16.147373554751606,174.39072306093126
1.62109375,-11.596037922105493,3.7808939859348487,12.578838529982225,26.942075924228316,164.08469281711223,7.6379844123995815,17.521142473798687,166.45720374281498
1.6259765625,-13.767571583832332,3.7997304840236947,14.243615790374971,21.38290767261068,152.1458545882487,6.026963571213687,20.17088421093596,153.75927321242335
1.630859375,-13.182366311909915,3.4618969776529687,13.687243828187663,13.925647559730885,138.84487880281404,7.671351499327421,19.315800679172515,139.75218661456498
1.6357421875,-11.160677565585358,2.9865504285418263,12.290887111552486,7.441928184482056,127.79082301752501,7.28764910198561,16.86849469200233,128.21461138276348
1.640625,-9.824711471055991,0.9689689390598895,11.567454607877307,3.8361022430887926,120.20984522635784,4.867318222834298,15.207559383400874,120.36948681641321
1.6455078125,-8.181402544365728,-1.1598189311297933,10.71862339942503,4.484194741033445,113.75647525948372,2.31096615958828,13.534009573096322,113.86827578622506
1.650390625,-6.715283749645968,-1.066519039333103,10.08049390224304,4.245190589815802,110.63860482759311,-1.1095168108452367,12.15931149418742,110.72557766340041
1.6552734375,-7.055871129418797,-0.7484811263737204,10.139451872767031,2.667159678788635,108.42086320669331,-5.325102963252127,12.375541429435005,108.58431765593915
1.66015625,-7.727300876943127,-0.18450426912904344,10.516236378616977,3.361841808108787,104.21170691572006,-4.765859377669818,13.051300634001194,104.37478265480799
1.6650390625,-9.167756797550302,0.5444101123315018,10.861087619407646,5.85662235462925,98.27735638737191,-2.002352998326417,14.223479579409837,98.47206822965161
1.669921875,-10.500328918559955,2.2396747587076304,11.025576906165279,4.892470624111283,101.38291087047526,-8.559648150891515,15.389489807544098,101.86117249396642
1.6748046875,-27.664133807572913,4.452427003382345,21.560681212704413,-13.25142112863926,34.07363632054237,-10.804836579799957,35.35521715248842,38.122924173642744
1.6796875,-4.010392120847997,-0.32213123087799994,6.497523649333294,-12.580854798547877,10.216516484665807,-0.7551265351730418,7.642305088552282,16.22422055532147
1.6845703125,1.1791844924239308,-3.1165479603677366,4.851986379552139,-1.8746427605355938,34.67897745771988,-1.6987532683626014,5.886010455631629,34.77113063533374
1.689453125,-4.8087713705358475,-0.8485703670862139,11.61212159868303,-2.5215015436284913,31.24905037016359,-2.675469624663326,12.597052106924975,31.464571454002648
1.6943359375,-5.886612663545035,2.283452359374266,8.708181723678669,-8.297736236792662,27.71227170030895,-6.384177452751842,10.756337306943841,29.623979327486563
1.69921875,-7.595032683397681,3.878340174130882,8.410352101752247,-8.28721419275391,24.70167681891778,-5.335395062249324,11.97748164029505,26.595435646236673
1.7041015625,-6.198400398359076,0.4470962720126716,9.002433092803521,-8.395330257928244,18.058112091939808,-3.6043884146062264,10.939097959394529,20.23780122217075
1.708984375,-4.679003242749747,-1.613966919128293,8.975948296316274,-7.231570914938814,17.35281499655333,-3.8503840051265374,10.250151627163675,19.18961341948632
1.7138671875,-5.4444945567275935,-0.025575789679398248,9.067895739821466,-6.315983910063168,15.77107132622519,-3.2981159522973647,10.576857200866732,17.30595020112613
1.71875,-5.1718548968013796,1.7770857729319522,8.256211084765662,-6.3351414531153685,14.642091445703665,-3.050046496035216,9.903087316293487,16.242772015986244
1.7236328125,-5.240568597387333,1.128039911045014,8.389018407144038,-6.877429841254859,13.835189787664538,-2.8016728857780504,9.955484071617722,15.702257437737538
1.728515625,-5.11763688726296,0.026664666922353957,8.848163047163935,-6.9533446731033175,12.89891270924045,-3.3505183961694516,10.221590268815023,15.03186364848514
1.7333984375,-4.9972131540586435,0.12742020117290012,8.820249220004754,-6.198041215285323,12.32325097714671,-3.167379132169365,10.138302200948548,14.153109909805154
1.73828125,-5.376524122968464,0.3637688070060801,8.827483576225651,-5.794056912543808,11.815142740203278,-2.8609517777285176,10.342330766241526,13.46676421979916
1.7431640625,-5.266599690735398,0.22885130247219365,8.52255966345429,-5.571180184406341,11.05944425672055,-2.675577858326242,10.021151053558443,12.6691780629446
1.748046875,-5.290656710052682,0.15679070633363887,8.659001232886999,-5.522046113302128,10.431114618007634,-2.3069048864137187,10.148592715266322,12.025928471698439
1.7529296875,-5.262069646499888,0.07978036049247997,8.588748682268726,-5.29471351014955,9.92578227515921,-2.0612110527854575,10.072851919774685,11.436946092928386
1.7578125,-5.242521164876922,0.2047780100847367,8.602669369958079,-5.242643325288423,9.549512054102399,-2.1829498087603025,10.07630301680193,11.1105247119659
1.7626953125,-5.19452562070404,0.21909272144200703,8.494677002130944,-5.132075227611296,9.17278350758366,-2.4271207350145043,9.959449553829364,10.787449581861214
1.767578125,-5.247256247321437,0.2288342584442454,8.616705211958047,-5.425428719596578,9.112277387231583,-1.7528073357368879,10.091267113335002,10.749009699943919
1.7724609375,-5.141766928042089,0.12283220396398015,8.575069867671097,-5.13294350861612,9.045909439451952,-1.9370380676832553,9.999233877056723,10.579588986584705
1.77734375,-5.237928738146369,0.17108311621216032,8.4851867437709,-5.476940942998211,9.551737841728649,-1.814806684433223,9.973141981101938,11.15912636329855
1.7822265625,-5.290991708370148,0.08462904728499133,8.51806606916773,-5.019948728054003,8.66617453759391,-1.2627012356971423,10.027921264768318,10.094398484256658
1.787109375,-5.377576573500531,0.11362737894104424,8.432969929804013,-5.3791925966367256,8.359696439159611,-1.68952551058035,10.002310874097317,10.083389013496951
1.7919921875,-5.358482700311653,0.02704293001310475,8.489679504771873,-5.50787616943364,7.671735290882373,-1.4426262802078598,10.03935885718538,9.55371094682749
1.796875,-5.3871156803879625,0.03674891950270111,8.658843459374802,-4.806556795762792,7.346957192675282,-1.0764328188612706,10.197937825409815,8.845308125521584
1.8017578125,-5.459411409148563,0.012820665661353524,8.564519424946063,-4.6418301738201775,6.6554436974168425,-1.0750003401867931,10.156590485201614,8.185178306150377
1.806640625,-5.392538898921339,-0.1460107798182242,8.504019134892433,-3.8867619344842326,6.080286845099517,-1.014178058774064,10.07070684563996,7.287342697372244
1.8115234375,-5.301085375420671,-0.12693883223014807,8.542000658535905,-3.301269424286463,5.818776622513846,-0.34156565391885946,10.054023815122713,6.698746770133899
1.81640625,-5.300829669093445,0.01250534470424506,8.475853592294582,-2.1936937267839043,5.174661804529683,0.02461712982026515,9.996951819549821,5.620500241194732
1.8212890625,-5.2769418123560685,-0.05967002339122759,8.490224999327072,-1.9535722046494073,5.420887938240138,0.2683240626792569,9.996679245723634,5.768402569199627
1.826171875,-5.296108686884331,0.007674164952613918,8.41004195220485,-1.4316275663829117,4.974417670662879,0.32940567982776464,9.938693664357753,5.186800242243126
1.8310546875,-5.267168062158926,0.022056243759062785,8.45716724355763,-1.2559411362610398,4.844690814036697,0.8802897617320353,9.963293815722787,5.081665798335666
1.8359375,-5.219115290364464,0.06041534648074451,8.349122469734338,-0.7861483282330091,4.838502901546597,0.6342820483300036,9.846352646682393,4.942818349797219
1.8408203125,-5.3005993740996855,0.21443455523366695,8.259071729974997,-0.9080399934984883,4.589685163538385,0.6352965231067745,9.816037986074443,4.721583230492571
1.845703125,-5.223477979928725,0.29123247160688803,8.259239873581679,-0.6850400155833755,3.89786400083129,0.452677326620181,9.776736768916304,3.983408132989008
1.8505859375,-5.353105841825467,0.3732285307309252,8.267901117259735,-0.27471575389237546,3.7654993677856887,0.7581236806479384,9.856633835885468,3.850870778069585
1.85546875,-5.252179922125895,0.36341589870340285,8.240144396984281,-0.29134945177470245,2.826866502299562,0.515547012217901,9.778417291819991,2.888225657160393
1.8603515625,-5.237814995279389,0.35376447016937396,8.207306774174883,0.05415947864192225,2.4471046526396485,0.1482448754886521,9.742676208852718,2.452189016614752
1.865234375,-5.232732218911902,0.464361560943138,8.216492855547727,-0.25377295024474084,1.7013255953289308,-0.27780998782654465,9.752326541876409,1.7424373391698897
1.8701171875,-5.165415006718757,0.4786554302784049,8.183833718663314,0.3892800082678619,1.440588578252771,-0.09510381293426091,9.689466319013702,1.4952856288562402
1.875,-5.194576019969757,0.3008009246478857,8.2828602491824,-0.02825307008007123,1.1344523732093617,-0.33826700165025053,9.781609025666473,1.1841473672878529
1.8798828125,-5.189836609331752,0.26713166723518134,8.292360766532186,0.0943805955490382,1.4462775128006293,-0.461813483599863,9.786164235364241,1.5211502340280552
1.884765625,-5.204431985720729,0.21425343574403397,8.254788454077719,0.03208049310398442,1.2596884199394218,-0.5835893283019189,9.76081703805045,1.388675835994548
1.8896484375,-5.2284228521769505,0.2431488993835661,8.240511377838311,-0.38000820592173373,1.202321208160004,-0.33745016679243545,9.762251516772157,1.3053180222564267
1.89453125,-5.252521614372973,0.23357048834449864,8.21220891302198,-0.26181733980310956,1.3279045191622143,-0.9503340081851973,9.751098077324338,1.6537876098660163
1.8994140625,-5.2572714893066115,0.22397598277599673,8.282755076099665,-0.20907640624906434,0.950872447067335,-0.8271614806723314,9.812904789296155,1.2775239603819137
1.904296875,-5.256996238895559,0.3441960406010261,8.273086887338362,-0.4971915535051063,1.2674988507993001,-0.5823038949106553,9.808080699891159,1.4808209222193232
1.9091796875,-5.180280881924083,0.2526822679248537,8.268918793527888,-0.3826491271120121,1.14174483166359,-0.9496717897561024,9.760849161733343,1.5335834256305274
1.9140625,-5.218883032913338,0.1854347875935184,8.292413005871225,-1.029051236553088,1.2148094931697515,-1.193121213181389,9.799757121052686,1.9895343127199938
1.9189453125,-5.132172690416695,0.2525959809233493,8.28794101283541,-1.4306930577848704,1.78388770953328,-1.009846586044534,9.751562310013549,2.4997856134403835
1.923828125,-5.117824095115462,0.24294170389377903,8.240994151855242,-1.8394658178660437,1.9782648609394253,-1.1316871976181697,9.703871843287477,2.928802190039154
1.9287109375,-5.069429765500175,0.36307737371433146,8.25975434118198,-2.130192409853911,2.170245471054257,-1.070266033484066,9.698169162440765,3.223841573350099
1.93359375,-5.083514555914671,0.4881428302960488,8.297043494600079,-3.1848153586461843,2.500880357778324,-1.6195571419209913,9.742758049661875,4.361240278697948
1.9384765625,-5.112625190022413,0.41604851522392994,8.221825501296527,-3.7649691073648173,3.0114491086796256,-1.8641290223878844,9.690740285160965,5.169022647047268
1.943359375,-5.102787229299117,0.48817221780467623,8.264037978169675,-4.417835901973251,2.772761331089733,-2.5355080786962727,9.724765977974236,5.799506933618097
1.9482421875,-5.256659990496906,0.4740405014614165,8.296319291910406,-4.831112350481975,2.717108549611795,-2.779223486941792,9.83290915477416,6.200516801341794
1.953125,-5.122439412894647,0.26701884122059083,8.358497740440884,-5.353818473894957,3.1005436398255526,-2.7176563828069344,9.80689395666633,6.757395898487292
1.9580078125,-5.069628802033288,0.24287060886849499,8.335265641406892,-4.755400991787621,3.654450815371591,-2.4143685571645337,9.758933119756271,6.465139200704771
1.962890625,-5.122239952960318,0.3439637420822486,8.372439279423956,-5.04777501089018,3.7846694343272667,-2.5976995792634816,9.821068815521622,6.822887833740498
1.9677734375,-5.04516070494685,0.33903731377485685,8.504471826344796,-4.804792275561736,4.219181938893592,-2.477117168042966,9.89417171288046,6.857378107483706
1.97265625,-5.021184073152283,0.2812980754831688,8.565842583682173,-4.256634893581783,5.2750243438606566,-2.175019696851054,9.9330296119649,7.1186749558657745
1.9775390625,-5.050514961359367,0.09380017684701301,8.537906933062755,-3.7158924365965276,5.892506394129905,-1.8716500373501648,9.920300128813262,7.213359970743867
1.982421875,-5.200162110432185,-0.11271751737691066,8.462457658971456,-3.223578504448344,7.137586121617689,-1.6920537170770438,9.933155633703862,8.01246777212396
1.9873046875,-4.974069410950519,-0.11793270415567506,8.54811010740384,-1.9609606103477204,8.61945412515787,-0.8418622213464336,9.890675459035283,8.879700891965149
1.9921875,-4.772286668098488,-0.12314937386383475,8.403206714840337,-1.4520700192935692,10.802739256604076,-0.3585629594889581,9.664562530354457,10.905789755126563
1.9970703125,-5.012472948807878,-0.021711555656995157,8.406640180314279,-0.6701710653774703,11.793107612347308,-0.2404820992194277,9.787591919131808,11.814582009251033
2.001953125,-4.9685891193442755,0.22827093703390725,8.415690228306604,-0.05537024278533781,13.285742154855226,0.24402262359574897,9.775624147663203,13.28809834061706
2.0068359375,-5.2477117025579565,0.10377588789240656,8.480588420820583,-0.21355336259627236,14.353173286297503,0.24186432921556966,9.973446120144617,14.356799322234304
2.01171875,-5.0216727493068145,0.15142702866439256,8.410923956182907,1.0965412009722677,15.272733866321644,0.4199419557648067,9.797130658658807,15.31780511702409
2.0166015625,-5.074701806358861,0.12266145854004912,8.35431899877406,1.0547922885365115,16.275669215127156,0.41768307630530505,9.775596666707882,16.315160260457933
2.021484375,-4.9108251142739645,0.1849114155387086,8.557128822903215,2.021963148871225,17.827841526379743,0.2885958131760538,9.867869538372576,17.94445752895545
2.0263671875,-4.536340637454476,-0.20525151862226648,8.851205955859585,5.5281003346610795,20.22568163967292,-1.6860590912227513,9.948083304735734,21.03522964834416
2.03125,-4.332599997568222,0.4772574251040525,8.98228543583121,8.232962641374261,23.8867033917755,-3.294473160237039,9.984019683448675,25.479596272006464
2.0361328125,-4.223375684653342,-0.06156027842328399,8.903989754527673,11.232342881973091,27.479468580875064,-4.412906641121563,9.855035534706834,30.012671742595096
2.041015625,-4.0218244868762545,-0.3263889604726084,9.093570983430983,16.27074700630786,33.48756981072422,-6.277735662725196,9.948599659623145,37.756648487683016
2.0458984375,-3.87630871336528,2.073041768611921,9.3946497404461,11.468628499556576,37.80849107910895,-3.5218858602612406,10.372208788941014,39.6662969957193
2.05078125,-3.4599621088988646,-0.7746135633849084,9.369780190028415,5.873121990200905,43.38578594850262,2.1741168629690764,10.018190693785213,43.8354510460987
2.0556640625,-3.9763518038289374,-1.7401582269006564,9.745887313607113,12.180856183212699,54.56933920103641,2.008081395836615,10.668732063932984,55.94835501680264
2.060546875,-4.063224906415783,0.3710174455318767,9.279985473580906,10.406596532994014,64.0461245309998,4.377274274264337,10.137335990036,65.0335594052255
2.0654296875,-4.080623723886009,-0.9946285340438197,9.522756212541836,9.234662786002442,74.33024972886994,6.559498290263076,10.407865380575386,75.18837702296355
2.0703125,-3.945615213014599,-0.9323273745433658,9.711330857452323,11.400028443677053,87.32386481213845,7.807586206413919,10.52364294174792,88.4102732526931
2.0751953125,-3.958720016531406,-0.38408537744057686,9.724182268386768,10.55904761935885,99.85882736997712,9.61568293666924,10.506127094950722,100.87487421887242
2.080078125,-3.671198396119694,-0.812612255706402,9.745186823158345,10.60014232031982,112.38116681266472,11.360533493320979,10.445415384753979,113.45021548079967
2.0849609375,-3.8056509421981146,-0.8219407438225624,9.928040156886691,12.707563890549562,125.43879673934012,12.486277481640537,10.664171183779999,126.69759679170875
2.08984375,-3.842711025517008,-0.17269384644985167,9.808880288836807,14.026010261116713,137.25878444803482,12.453793852641589,10.536146530442847,138.53447171488088
2.0947265625,-3.8523946161495197,-0.13423233872458107,9.672365156576177,14.531503746033474,149.65396836872864,12.667118430870048,10.412185664952684,150.89045940340662
2.099609375,-3.93873214236469,-0.03789451927195582,9.66237155066735,14.909018644169073,161.5523756742204,12.1470556395932,10.434388859297576,162.69296199783196
2.1044921875,-4.284219707820957,0.05421298223964556,10.107453657381724,16.083841650973188,171.80838453640186,12.24083771858393,10.978073464339905,172.99320526342765
2.109375,-3.920253114950324,-0.40338536254044344,9.762016749702951,16.138272767815728,185.46556998715167,11.717720426853177,10.527491403818413,186.53478622120156
2.1142578125,-3.7084443768425213,-0.45181070084336045,10.059339130966078,15.494841622634665,199.5071714955617,11.74563836949593,10.730656846499047,200.45239239225103
2.119140625,-3.5430940012581944,0.2067496569778394,10.307880080293117,12.956026424261173,216.46291297497382,10.362736853490489,10.901772895823683,217.0977605352297
2.1240234375,-3.1632795838271814,0.3213912456557252,10.01299275372259,10.217201914628241,232.0436353984001,8.923283589087047,10.50569626175929,232.43980927087597
2.12890625,-3.5853280017378863,0.6636665734095493,10.269070819672226,9.846407664588812,252.23119128774823,5.690246311516858,10.897194395813566,252.48743435153293
2.1337890625,-3.4013467690557038,1.3268924821733505,9.98623727739948,8.65132118602576,272.49541857437526,1.7859230645851873,10.632720181737918,272.63856664727456
2.138671875,-3.1510620697010854,1.3841476704442761,10.071858421115099,9.282860161014433,293.0485440096827,-2.8588463925025254,10.643654870188733,293.2094705865754
2.1435546875,-3.692616347560955,2.029605642881555,10.317345258366412,8.8065683943989,314.3743704756944,-8.849901150742184,11.144609806369488,314.6221880434568
2.1484375,-3.0720661700720493,2.696641201239542,9.147529336028745,6.317501228812769,345.120798978503,-13.32682265998616,10.019319202172884,345.435784063474
2.1533203125,-4.223575221111488,1.4245791676041104,9.827236713671338,4.263395297230496,369.96793396806186,-16.015651390166834,10.790857003949613,370.3389660750108
2.158203125,-4.741131992521936,1.3008830093949644,11.617115533677541,4.072532351926741,396.8472942521662,-16.57312891442111,12.614594820978578,397.2140846911611
2.1630859375,-7.001063993035677,1.108057439834608,12.125018613689322,-1.7721092628255006,423.24577178197814,-16.806546802023693,14.044883933549114,423.58303048867566
2.16796875,-7.322874974213071,-0.2861182950243979,11.157838455546447,1.6111970266156197,455.57035961034853,-13.096471151700609,13.349296631911917,455.76141353562195
2.1728515625,-9.58894787011635,-0.49754703513875687,14.70863384550277,19.305458426752665,478.15538739923653,-7.26126461432979,17.565289178065186,478.6000430294385
2.177734375,-8.815742639749358,-0.17710829780559056,13.196919459609704,28.09414286329792,486.73665491849647,-8.650407964896116,15.871589991644564,487.62350400942535
2.1826171875,-12.13201616805487,2.7672547957538955,12.74803101168329,35.95932084731009,516.4296192968367,-5.987276095225346,17.81448315504569,517.7146626452799
2.1875,-18.3151382359096,0.07270314207494917,18.97733107190467,48.603165926671274,512.5495019146305,-5.647327242260141,26.3740150329832,514.8797451405644
2.1923828125,-18.956653853289296,2.48830850698173,20.61531362290316,63.06070291516752,509.157842283992,-10.883290935551662,28.1164997876692,513.1635281594293
2.197265625,-15.827265043828,1.115413209294382,14.235808896779904,61.09877111613542,519.8023418827186,-20.081909491342397,21.316770870389494,523.7659950278169
2.2021484375,-12.482405785005664,0.9597889145810327,12.868037634776016,65.08688787317865,537.0440261981911,-23.807859221177992,17.953218138041642,541.4973713776222
2.20703125,-17.47982520298306,0.5660019619605832,16.760050326571015,65.57982883170278,538.2295305518186,-23.8149776455969,24.223210652119967,542.7328022774068
2.2119140625,-21.501835269121276,4.228112470270308,15.81269128830861,55.9300110238761,531.1054592616543,-23.77138025244283,27.023083850312755,534.5710930360618
2.216796875,-26.69609919523074,2.4543260551463106,18.658085773269534,34.44438962412538,508.8654026582117,-20.968689566510644,32.662357437105676,510.4606742357526
2.2216796875,-28.445370946505044,0.21778543357225608,24.190854030872735,19.78040870877851,469.3614645035682,-18.696554871419902,37.341451197326826,470.1499868059986
2.2265625,-25.968908684003353,1.3628406299501348,26.000417380494884,8.77516201156542,431.3809199375155,-20.844213289339148,36.773132267739825,431.9733588800562
2.2314453125,-19.721457498118916,2.981698202000038,27.7125150017526,0.7147760442579981,396.9208607630259,-21.41742884548775,34.14395843689311,397.49891430292786
2.236328125,-11.431361994707322,2.8027331018820445,28.08297706032986,-8.724536550869098,364.0387929543252,-19.54016994013946,30.44971182893916,364.6672161779271
2.2412109375,-4.1980304134218205,1.980130605997443,22.44913843956144,-0.6718513448506044,342.8626696047143,-17.911914753848308,22.923965478237342,343.3308874582218
2.24609375,12.631147534784494,-15.21186515450422,11.2211074517002,31.988673667147747,351.5519527652235,-45.43491459607533,22.73455480027955,355.91625728586473
2.2509765625,-24.146935480235317,-13.943789054179616,19.68334940858432,38.03228732097885,355.3015629502139,-103.32154946739459,34.131187940277194,371.9690821803253
2.255859375,-29.724134669942316,-10.466306246387644,42.32485315175591,70.55119409637771,253.46415710469174,-120.81672774827052,52.767991648704445,289.5137848687284
2.2607421875,-26.04798180298553,-5.337333354041158,42.10860901271725,95.6777181536025,141.23353704952356,-128.50672123293688,49.800797547094746,213.57695367393717
2.265625,-19.19466310264411,-2.2303288750540617,36.582084032786646,105.13343327632408,73.09451094019259,-139.38171278278372,41.37219272285155,189.26993469728794
2.2705078125,-11.730178230075667,6.415684462881807,32.52285442153893,90.91973834506769,16.367199215632578,-142.7579095632957,35.16381873689515,170.0414795683156
2.275390625,-3.2698688266309044,10.558124354387816,25.64658935651283,58.982652857680826,-24.826873053423718,-141.71361047084923,27.926932836380132,155.49300420412519
2.2802734375,0.945887821990223,10.477024925838615,20.430648586486097,27.19542817528222,-51.06163808042696,-136.66427827906833,22.979864158278207,148.40487577782636
2.28515625,1.5950647453059397,9.845261320052078,17.584810176841355,1.0495451471362116,-67.67557800081494,-129.45015506852926,20.21630408747788,146.07678819725788
2.2900390625,2.519390615916492,9.309306119022589,15.454826650486197,-15.766480084359072,-79.11156257934697,-119.64065257503113,18.21708473630778,144.29520773946626
2.294921875,3.823711128905984,8.705362425633515,13.561802054230458,-26.822299266303382,-87.82445457238693,-106.66890719847342,16.562807030122666,140.75093719682627
2.2998046875,4.59901479748003,7.765916370393199,12.302117940394345,-32.007100526201334,-94.0621352421057,-91.69807956196607,15.257866823339157,135.2060559507273
2.3046875,4.326155226365849,6.554462935290749,11.706292670257548,-30.265335371674773,-101.40915605303131,-75.21178038246038,14.096591484980983,129.83304419464045
2.3095703125,3.554304240086813,5.550835443208113,11.639281701489445,-21.721977680577556,-110.17500021828789,-57.88267394195653,13.37601328032017,126.33597638885804
2.314453125,2.5856018407960355,4.624540240940692,11.6747101829587,-9.199508542546546,-120.44660135964887,-38.723152030391084,12.820708528598846,126.85226541013502
2.3193359375,1.806085580956383,4.539385687541591,11.403422911007004,3.1104466823449997,-132.71782452581468,-20.231689377280645,12.405886571836591,134.28706966974676
2.32421875,1.4168445091788104,4.84780097909939,10.99188400315717,12.714697841251603,-144.5005803969968,-4.796217147089882,12.096699410790103,145.13815823271736
2.3291015625,1.014042083115437,5.382317544892152,10.861974271834992,18.89784558497549,-156.60347978414075,9.117554815241345,12.164707500897352,158.00287419558003
2.333984375,0.6012393621047244,5.806227038440429,10.62879588116016,19.964445591197062,-168.11786821627663,19.552893946455942,12.126213880508129,170.4245063452747
2.3388671875,-0.0038420236972564865,6.244929203780675,10.42296491624322,16.306454745573912,-180.30442135558135,27.12407905904066,12.150611226050147,183.06092016468605
2.34375,-0.6624697464553754,6.4192383596134555,10.198667207801835,8.413564032798204,-192.1708998424875,32.684769571806285,12.068898048206139,195.1121138421893
2.3486328125,-1.24465874716051,6.276062039873259,10.196441832646235,-0.8310368800749275,-203.63403708055833,36.04336622112736,12.037672373501422,206.800957271896
2.353515625,-1.9908765586089952,5.791810076167525,10.434104005601151,-11.071033049931232,-218.21259445894688,38.860949231976946,12.09872637221441,221.92223306489095
2.3583984375,-2.5892309349917704,5.013848970967956,10.235669843829314,-15.353003465549918,-228.17780102060144,40.67284898890609,11.688102304919802,232.2823803883642
2.36328125,-3.5698645380945146,4.991709727907439,10.565358890905369,-21.768113430563844,-242.36797881629846,41.520093250125946,12.218343067767563,246.86029664837307
2.3681640625,-3.811606717857167,4.492015923538178,10.461931680307305,-28.39344857891138,-254.92320884768495,41.38457790842974,12.006605153512465,259.8166923430105
2.373046875,-4.304474275122967,3.4926871602348575,10.457267692542972,-33.02461585403957,-267.8207023805455,41.18371252950002,11.835616163849174,272.973720445079
2.3779296875,-4.965444271024887,2.575425574553509,10.456393947669243,-33.65061991757325,-280.46544184755214,41.33941485276758,11.858525544416224,285.48585868996884
2.3828125,-5.30352286732015,1.9797457686998856,10.409193510245922,-31.194810729396565,-291.77864784214614,41.72873086702031,11.848968632189836,296.3936276858971
2.3876953125,-5.597863502404328,1.6436367776290022,10.225226697318464,-28.667765229256975,-302.46904463051976,42.8511875567253,11.772547670741424,306.83153031910007
2.392578125,-5.488256755714773,1.3981055778336857,9.873513058226848,-25.34103793659884,-310.912405956729,42.80270058757463,11.38252702761538,314.8662629738149
2.3974609375,-5.710479481005236,0.9609148944765138,9.88761053749382,-21.338637815328163,-317.6739243331856,42.68684530741522,11.45852414050638,321.23858178518884
2.40234375,-6.086136132777203,0.725978724076592,9.867674565072496,-17.74632396379019,-324.4314402781627,43.184379477513524,11.616329000880047,327.7736750961687
2.4072265625,-6.7206155207535545,0.7272134219466401,10.090651672751196,-14.0993012513161,-331.31234290489556,42.88576945599331,12.145647925065564,334.3738148819956
2.412109375,-7.254189225367879,0.6849837843626414,10.3376793018419,-11.576982830368248,-338.4871819020116,41.794685992917735,12.647532464872887,341.25414960212095
2.4169921875,-7.936707150477037,0.6767031541631635,10.621607502245926,-10.036100009421652,-344.51863727297416,40.33590276551942,13.276588171780228,347.0170021536923
2.421875,-8.6964698502398,0.46662415644796634,11.056138610711539,-8.822511938244293,-352.42261085045556,38.331377185180244,14.074250492966833,354.61081178168365
2.4267578125,-9.321454912074838,0.29957852219222547,11.519381589615794,-7.6518377201889365,-359.32226572486786,35.89576770488193,14.821451385609384,361.19184293844665
2.431640625,-9.961227135074889,0.021938622185612024,11.89814723655378,-6.451738834265201,-367.84883588595727,32.79067905123893,15.517488037772353,369.36380389702623
2.4365234375,-10.529163278318096,-0.29914954221826345,12.112714288245556,-3.9541309309778385,-376.1434639438626,29.49820417830818,16.052121891474652,377.31907541078857
2.44140625,-11.193290682217576,-0.5912194589699468,12.251549379004834,-0.19189979262732362,-382.70256554114394,26.137120111889647,16.605413542922598,383.59410780804143
2.4462890625,-11.645984704698018,-0.8356425429019307,12.165455414723976,4.384869157687085,-389.83887331883597,23.142956689075486,16.86195610388085,390.54983122815696
2.451171875,-11.579613297378325,-1.0906990287648428,11.870010779142076,9.527218744460528,-394.85426597349624,20.264675787034154,16.618490436412046,395.4887057037494
2.4560546875,-11.489139646471553,-1.2592663846735261,11.44749928931029,16.193593519925546,-396.8249615563884,18.048690606918633,16.267492788455534,397.56513657253953
2.4609375,-11.42755776008062,-1.4902761171620673,11.119059701825778,23.27035060045047,-395.41890088771277,15.823268000489783,16.013853000390892,396.41896045286484
2.4658203125,-11.769455662448866,-1.6291205695655662,10.986187131276179,30.56413480609626,-391.6354385246096,13.591315866541581,16.182411072023527,393.0613271638315
2.470703125,-12.125406384394779,-1.6957696909321531,11.027108309653705,38.11361717870159,-386.4736942412996,10.191674434058127,16.47720341879166,388.48221887588625
2.4755859375,-12.298520963795124,-1.7723561038633002,11.181721982432554,45.390573227766865,-379.9273274303805,6.0543335969061465,16.716033337733716,382.677061269211
2.48046875,-12.606302341697337,-1.968866659700276,11.561757771034396,52.51180181083055,-371.93261087707884,0.3828334088896099,17.21829078073771,375.62148890163274
2.4853515625,-12.990122520432735,-1.9199252167135614,12.213701780316011,59.46312609264085,-363.4956418078528,-5.657109575060605,17.93331835194259,368.3706664037683
2.490234375,-13.474357878344511,-1.8226270041307049,13.255455773329093,66.721587325708,-354.18364869948203,-12.435243856745094,18.989138926991263,360.6278726209566
2.4951171875,-14.419448843365254,-1.5753156377455648,14.65700690544955,74.62908799855555,-344.8196640809927,-18.848106918605662,20.62110510451244,353.30631560565115
2.5,-16.287382476151276,-1.3021675811793598,16.364878757798248,82.00272154075651,-339.52643550366616,-23.106532678032274,23.125391350015043,350.0522226730135
2.5048828125,-18.688176575226716,-0.6481191471032567,18.06488960663135,88.18465515681048,-338.792832160006,-26.064753739854215,26.00015843481481,351.0505489465055
2.509765625,-21.38212682198465,0.025736157003105657,19.87174895598987,91.8255897347528,-342.15480138523594,-29.37384043526926,29.190450773345333,355.4780858829726
2.5146484375,-23.633366626507907,1.1650852448368891,20.992873134112994,92.75193301645717,-349.61461171535876,-31.746890506253315,31.632169766799706,363.0993842737639
2.51953125,-25.221502853791737,2.2646508201573856,21.773653010442715,91.12112208257592,-358.92106881438235,-32.63909765071474,33.39677851171016,371.74279175782175
2.5244140625,-26.50250230859728,3.5413869933868143,21.65710029003914,86.58095072132586,-370.0698640918944,-31.803886191263356,34.40863326880257,381.39146885276375
2.529296875,-27.11647769840268,4.489762817785453,21.026839192531153,81.54820177440499,-379.59487866148373,-27.358202203353212,34.60620319186291,389.2182579819004
2.5341796875,-27.789325097949636,5.221733282077407,19.832428340061828,77.34021864926302,-386.0091165537386,-20.1660255347906,34.53749124838652,394.1969254943313
2.5390625,-28.563581649502265,5.833646281076622,18.51555865975896,75.1074162187418,-391.0888564510132,-8.634467007581756,34.53600350450927,398.3292251790239
2.5439453125,-29.55465852209946,6.34013800710149,17.042773388101452,74.09081237550743,-394.1255987272708,4.787466705864815,34.70059531283546,401.05779619407986
2.548828125,-30.619031655789907,6.644672336345905,14.977525471019419,74.21851600598676,-396.06192906614115,21.266215857060896,34.727554466600445,403.5166560510272
2.5537109375,-31.30507886816036,6.621355493281936,12.242108146475514,75.66498761323939,-396.64201318915804,38.41263012050636,34.25959023952501,405.6175626498866
2.55859375,-31.67981578633319,4.664020557946903,8.251864338960342,79.02978852971881,-395.6967871611851,59.34889839193931,33.06746257410088,407.85284918101655
2.5634765625,-31.17755335130124,-3.3682704294631014,5.882491540462509,100.10479003150373,-389.41256846564244,91.9218027223479,31.905936522579047,412.44725151464684
2.568359375,-26.966546282207815,-4.910642670435005,3.726717668495162,129.88497383732496,-375.41558768353224,120.1634559807773,27.662202631168533,415.0255727756287
2.5732421875,-28.921299393586,-4.441144049675201,0.6460681394237112,151.09462933653015,-356.90300100390994,147.62262341084872,29.267434515587148,414.7309707299922
2.578125,-28.957381842051838,-2.263138166299164,-1.7762305718179165,147.30620118624435,-339.86021439842597,162.96198267560243,29.099944201843655,404.6735598435234
2.5830078125,-30.136114852613893,0.8450549837474519,-4.553575690956788,124.58743822098891,-320.7512634311597,168.73173994255882,30.48990960807796,383.24118100642215
2.587890625,-29.73326051724703,3.9165566741325306,-7.648454152169281,82.50020720413653,-300.5610654411552,161.5057236825738,30.9500411645285,351.0375151320436
2.5927734375,-28.6794777778157,5.452906433863581,-10.215092634756036,29.48546320730146,-277.7888973926887,142.48309937507136,30.928865994752254,313.5881019151098
2.59765625,-27.589662435322808,4.084554720868392,-13.062099404240909,-24.639625558990236,-249.76957775345727,114.32814774968233,30.797589214240478,275.794993585273
2.6025390625,-27.555618682624715,-0.6816046838163402,-15.384230011624041,-58.16065271525311,-220.99171901858168,87.0380399334884,31.566615893658454,244.53143314207185
2.607421875,-28.904427503740177,-6.959830031813821,-16.989512074664106,-63.40371731381612,-190.134857702321,62.48736251174404,34.24249821385505,209.94276828785095
2.6123046875,-30.452212528391673,-12.174835166647812,-18.2029334012879,-39.229759793965755,-159.79552812706774,43.6790727161221,37.508807547309495,170.23937927589208
2.6171875,-31.59181880866355,-15.596888268154954,-19.432610278725264,9.77597702645669,-125.75964817517297,26.940646485784402,40.23595756948698,128.9839419037777
2.6220703125,-31.139259538131192,-14.871800489085478,-20.452788091078176,63.64664922901262,-89.61418907777328,12.937809780141247,40.11409322256714,110.67513616009239
2.626953125,-29.273881087613773,-10.706098994639367,-21.041658007179503,99.79555174591422,-54.65507617177071,0.8791445841740365,37.60760616292761,113.78533470888674
2.6318359375,-26.889438937179975,-5.189835886826972,-20.488378899744713,113.3597127647094,-15.977682445109478,-11.622901159470567,34.20160804447697,115.06868664313937
2.63671875,-24.94977550179479,-1.1681000482428436,-18.917906087120944,103.10685930244861,19.28885885041722,-22.403063672421027,31.332777183546817,107.26127806844744
2.6416015625,-23.582645193184426,2.1047810548145574,-16.069058444050153,74.19019602460773,53.260893367604424,-31.541476419360414,28.61443511367349,96.62180231810065
2.646484375,-23.213541148922435,3.8552853135058673,-12.365272777948418,37.686787737902684,79.88155651598878,-37.64226138536493,26.58254480658918,96.01196219025512
2.6513671875,-23.78063485607884,4.054335054367509,-8.337661300449062,-1.961345766215055,101.09285809007343,-41.700598951528576,25.523965656853385,109.37345558658463
2.65625,-24.523654010145094,3.1284078478958666,-4.42592985337337,-35.551766073022584,115.00411331495432,-43.73521801755225,25.115441400442553,128.07280525276474
2.6611328125,-25.25891484776743,1.8512360047841159,-1.3975702237729881,-57.72086377370827,122.1594608939302,-43.02573516006358,25.365193801005184,141.79508414166756
2.666015625,-25.913895189616383,-0.14737704682079386,1.8490600706330087,-68.45357315495737,123.50011562314994,-40.00441641029033,25.980198364084178,146.76008847415025
2.6708984375,-17.696737485899522,39.3866854654629,7.018712226147897,-177.74022577016498,101.93772690470014,-5.956119374490965,43.7464036340546,204.983812486083
2.67578125,6.600100290819615,20.23388429241183,-0.3065448760024826,-338.1984771228506,198.0307841724969,-64.00734748138568,21.285332207146563,397.1036916723291
2.6806640625,14.861265430807164,-7.283184826715037,2.2635508539953166,-311.13398212081466,201.2879133865941,-106.88272158305189,16.704061000056814,385.6748566848565
2.685546875,-4.011036483167013,-8.658224690484996,18.950660946817326,-294.84672085671093,190.83828178122252,-66.98898738343098,21.21746494710073,357.54910575167435
2.6904296875,11.159510045284033,-18.09327143219157,16.98694851025271,-224.7955131889558,209.78388987371517,-11.064608299359993,27.211349750788393,307.67633766224424
2.6953125,0.8445081914826833,-16.441384967548043,4.86559816344873,-135.24270058129576,215.05667012315178,76.58013907521743,17.167014278107647,265.33841999559695
2.7001953125,1.9065195877638224,-17.661334232462522,-1.5373664931205966,-54.903154332822005,253.75989635341318,135.9278604368814,17.83034042141231,293.0611277463065
2.705078125,-9.884171573014365,-10.242005217645538,4.043338911048437,-14.853224692302936,285.316156391838,151.54061518246988,14.796760054574856,323.40452289949997
2.7099609375,-21.350885146520042,-13.90706761491976,13.224055108616692,-12.25711122229876,279.30010719795075,123.92696386417909,28.70788149100472,305.8049689408204
2.71484375,-19.67886867513513,-24.488128661161213,21.343777849471376,1.0312106320172352,253.87183978901024,83.59631835962385,37.980036473736895,267.28321847154575
2.7197265625,-18.418192744822576,-26.611029961672354,22.26161479658494,6.075036046246213,224.55148299153305,43.48637491623738,39.280481577470354,228.80415070539152
2.724609375,-11.301592347134228,-24.423691307239068,13.441408522917031,26.887637889160303,215.90260616664693,7.15161836306329,30.081790999407847,217.68790978375387
2.7294921875,-8.518703140816337,-17.177815285344323,9.853946719697364,45.23874490297859,227.11942436755152,-20.292515140151373,21.557966210507836,232.4684132009293
2.734375,-11.770848756237113,-9.130642588316434,12.761552464557623,58.42521627383254,230.17062611127565,-36.07552813771777,19.61577772670366,240.1946434696578
2.7392578125,-16.625576854294696,-0.4405346246844962,17.3726743896412,63.62209283405918,213.60787252309282,-32.993435026288886,24.050232679583388,225.31014325871232
2.744140625,-16.870685683890933,8.31186388433662,16.087315791454923,60.67324690117882,190.3605888985831,-18.84660210972864,24.748916058089833,200.68281218487346
2.7490234375,-12.845519650798268,14.34832793493169,12.25865801679279,49.3442787417566,175.68773179684473,-3.043617872627986,22.82885424194705,182.51109708239335
2.75390625,-10.690193049725377,15.368342026632046,11.071246954473775,31.446283674120092,169.65019098351476,8.039091124873687,21.74945225091626,172.7271925429528
2.7587890625,-11.30524996622014,10.859022733184487,12.432920421741354,12.20671056703804,161.84455990968988,11.475224927846098,20.0076125945074,162.70939168460222
2.763671875,-11.831990317459233,3.339044884610254,13.20428384065802,4.233080019548144,149.1806435392009,13.120513950149071,18.041572197526285,149.81632507686896
2.7685546875,-9.51040363673643,-2.4987694002625176,11.90563345154271,3.2266593592709705,138.9984937256716,9.23201620850289,15.441364374038669,139.3421067441583
2.7734375,-7.503269926087069,-5.181317988713714,10.786824229640414,5.102792381179397,133.30439055340608,-1.0441884055530763,14.12447141117318,133.40610690791758
2.7783203125,-6.897574003608,-5.0623146587049215,10.375335975322717,10.12514297086826,129.18971259440846,-10.598850040154138,13.448091070475892,130.01859860258477
2.783203125,-6.302306153354421,-1.2500539326287727,9.969823437467467,13.050702403269357,125.65356864034413,-15.619648592766548,11.8608210954961,127.29145127397162
2.7880859375,-7.225844444968057,4.556076719562889,10.239967388744304,7.203294301484653,124.6819773356113,-18.114790909029768,13.33520135355914,126.19678510480985
2.79296875,-10.007483544896495,7.44190993712064,10.668307391182704,-1.2492230321736588,118.15293809949482,-13.913857540477224,16.411719379953844,118.97593358063581
2.7978515625,-10.89335128858276,6.929043162300405,10.792549830901995,-9.206559562653736,109.16431192393965,-6.829400854403192,16.827236056286615,109.76451363185647
2.802734375,-10.651826588974682,3.177719930365337,11.149844530263344,-12.889639514864356,99.43369458086336,-2.6315634943627533,15.744152777665507,100.3001871944835
2.8076171875,-10.018245256387265,-1.4976561219118536,11.463842020295775,-13.11310449987859,89.85732355793844,-3.647448409919398,15.29796998764624,90.88231943851234
2.8125,-27.137218534914314,2.330398407081002,20.015617132166387,-27.1094620098121,83.00920208001537,-27.66486822618193,33.80065555176253,91.60128544073103
2.8173828125,-21.33074531263626,-0.648438118406531,15.795898374624386,-20.096107783323774,29.731697498982456,-12.606975555620531,26.550547509371963,38.03634073974493
2.822265625,-3.338878598591227,-1.102403165565864,6.638549530377142,-16.589151266058295,24.51691596934637,-7.025877289865439,7.5122395397677995,30.42436622295363
2.8271484375,-2.034487674640031,-1.4122670609509793,8.356829562511768,-13.920760914703438,36.512723024567165,-9.330309079726156,8.716090791552137,40.174882633759026
2.83203125,-5.5887542647487765,1.2061038886519535,10.687124247043101,-16.876735939577564,32.49334067328749,-11.703443369897617,12.120374808301333,38.43971892192955
2.8369140625,-5.762555158637834,2.158070514973677,8.130521214397831,-18.206570669060685,30.509611860683208,-12.304527468850834,10.196552629281891,37.599428554816456
2.841796875,-6.644266212075069,1.1403584123511386,8.730896188627124,-16.886460255809162,28.292767114121613,-10.649275757280678,11.03064998366488,34.627161089230945
2.8466796875,-6.726071151182489,-1.3455042655229446,9.643673448155171,-14.975755139216782,22.61920433850074,-8.12997675374795,11.834308278643194,28.319572188031206
2.8515625,-5.1934261355285765,-1.6274059070316078,9.091310775982961,-12.009805915452784,20.56835995573879,-7.58119217016295,10.595850916133946,24.995346449221778
2.8564453125,-5.453831145690855,0.09466323464325685,9.062888650101124,-10.731077669535136,19.54358773551724,-6.663906418746877,10.577768478173104,23.270485561828558
2.861328125,-5.750931673533832,0.6193524629178573,8.877024712336592,-9.694228165262217,17.955494278708482,-4.703058366575016,10.595205535071587,20.94031022960996
2.8662109375,-5.151239727519748,0.007510253799478358,8.937416549153218,-8.492143043896622,15.867418975354274,-3.782603679110752,10.315655175865839,18.39020307149045
2.87109375,-5.2483658852301645,-0.4202883485137599,8.994366525074927,-7.140326267811067,15.720676517239577,-3.2957323474457376,10.42212147062836,17.5779913834454
2.8759765625,-5.147221942741121,-0.3339253140806643,8.95699402203433,-5.914348860797257,15.00970999984135,-2.1949579533467256,10.336011888246755,16.28154652186061
2.880859375,-5.3725249010449785,0.0031024735269773182,8.870618370854979,-5.223533418149673,13.994267109175656,-1.3368995347169221,10.370723394201592,14.997070169183322
2.8857421875,-5.459518592512184,-0.16024578024563688,8.82826919397284,-4.531604155816462,13.105653522364177,-0.9077180214241023,10.381250355006502,13.89667379194344
2.890625,-5.436134204418461,-0.39594294908789635,8.744232294583782,-3.65720250050321,12.590591813761682,-0.6023487193250242,10.303879091343353,13.124822144704366
2.8955078125,-5.339105747004716,-0.059492144992118266,8.790949208033146,-3.4257195422072106,12.335645559839515,-0.35759228554882666,10.285444933070865,12.807481329384506
2.900390625,-5.223495830407688,0.13740913477953695,8.560572352933594,-3.0776914839951535,12.016306956001449,-0.11258631181065674,10.029316475733447,12.404696425512082
2.9052734375,-5.213735199217266,0.1999055858293809,8.555774998302626,-2.969368989841144,11.45047518203874,0.010973728253770744,10.021191685242988,11.829228821653045
2.91015625,-5.218678955810556,0.1614359721577684,8.518213222599766,-2.5582097584637964,11.509080442738778,-0.6024795305857269,9.991027380735174,11.805352658455673
2.9150390625,-5.295325505209884,0.3298718577312679,8.423448950027119,-2.9221647556255914,10.824513150643714,-0.3548476715555505,9.955088139356796,11.217622238134402
2.919921875,-5.280676671565348,0.4212144689158771,8.428015857155929,-3.3489309935579166,10.01805479409436,-0.8416730346071778,9.95461797493557,10.596469891160671
2.9248046875,-5.299956462280621,0.40682196909842655,8.41855718127451,-3.300635567310919,9.454776254066433,-1.2077802280641823,9.956261729735708,10.086908458093546
2.9296875,-5.319763862769366,0.16160711017668172,8.428413920517231,-3.661773526015937,8.958851955519672,-1.1443290061734661,9.968157584491486,9.745722271392705
2.9345703125,-5.343647949140722,0.21936248994310398,8.44699551281424,-3.9099122194741995,8.146920153249113,-0.7743404816343895,9.997721065315524,9.069692647984715
2.939453125,-5.411084502597984,0.1617858676563552,8.465639742320963,-3.335520200462052,7.3879596354657835,-1.1413139297757593,10.048535535489416,8.185978259759937
2.9443359375,-5.449617422613876,0.1281986362381683,8.479654427489164,-3.7605210493256624,6.579290200411303,-0.9545360187024906,10.080640066624074,7.638044063413747
2.94921875,-5.238091072370413,0.132599746548423,8.424130561291397,-3.7701858717446037,6.015557267647044,-0.9531340778328106,9.920743746761884,7.163078620130453
2.9541015625,-5.339138988045189,0.12316357250522333,8.386086094900165,-3.25746228466698,5.005078896894257,-0.7681754513433707,9.942233873246714,6.020960789127484
2.958984375,-5.2381864069309625,0.10854870869441513,8.391261411555748,-3.1953084316372475,5.127789839997821,-0.27881775023997224,9.892605709972479,6.048302568020704
2.9638671875,-5.213943315538573,0.14218670307411443,8.49476074062005,-3.026191546463181,4.686580118838897,-0.2170834220410509,9.96826875623647,5.582919818366218
2.96875,-5.233165744206013,0.19990743788110868,8.386380179554743,-2.327983263563765,4.2377022221289256,-0.2176395235746102,9.887232130686531,4.839937309624084
2.9736328125,-5.151574745959675,0.12281698851510982,8.41042010866277,-2.02631877595189,4.607475638769243,0.27050316625017234,9.863517262116819,5.040632054274401
2.978515625,-5.12250641255814,0.25258650941086136,8.33031070769703,-2.0874612336816183,4.483226962024497,0.20977940297725436,9.782532820195772,4.94983088529906
2.9833984375,-5.165672520954638,0.27672147225641414,8.377100184031612,-1.9724039904476451,4.292792371121044,0.4548306979728874,9.84563633597423,4.746084155059551
2.98828125,-5.155866107666952,0.35845343639778715,8.372260904603717,-2.030949345284225,4.357292156407707,0.148636346234565,9.839014017726065,4.809661416651334
2.9931640625,-5.1894709103811065,0.4162087926915595,8.301442008136526,-2.2060027026495486,4.422094119577957,0.27147040499575104,9.798866133551334,4.949248479041198
2.998046875,-5.24725207367666,0.3586207998952953,8.353049773724353,-2.0970251268162747,3.919581463414542,0.21117085463937857,9.87095252369993,4.450306322118829
3.0029296875,-5.285542271945793,0.4933167725710885,8.230308314601972,-2.6926072222974686,3.55389881681324,-0.21490981971337095,9.79378851619904,4.4639127102043865
3.0078125,-5.32405941824388,0.45492541037258816,8.267848877920695,-2.9991089850610106,2.87040292338155,-0.5186270261697471,9.844282141737331,4.183639759719365
3.0126953125,-5.3339474892579295,0.3731792037535085,8.202141966494718,-2.777242084959384,2.052149727441988,-0.3333720545708866,9.791087343845366,3.4692259985591294
3.017578125,-5.242922894005379,0.21432170574642653,8.235808215119494,-2.7271007472207196,1.550490453692284,-0.3935210482536705,9.76538331158944,3.1616384910203412
3.0224609375,-5.300530143126321,0.2480948041468153,8.249592202799858,-2.9070145739393145,1.365638711680577,-0.5150787762574256,9.808819620246444,3.252846287436129
3.02734375,-5.30550013773305,0.17116555827430993,8.268551229373944,-2.794988326534727,0.9871274586049792,-0.20827018298529473,9.825811355435548,2.971490675421689
3.0322265625,-5.223838792858413,0.13734931637316888,8.264278351347341,-2.6242252834092636,0.671773035105242,-0.3304083144027234,9.777814338441335,2.728920483085828
3.037109375,-5.1564746829130685,0.18049265735167438,8.212744009706508,-2.5102865915696717,0.41864815111514614,-0.08512295824460221,9.699019173290226,2.5463799724838636
3.0419921875,-5.156397911207662,0.18531292960672202,8.269170481190374,-2.2790020115023655,0.16425268985866423,0.037303085498051905,9.746894928518334,2.2852178527976954
3.046875,-5.161132435824711,0.21417615724208544,8.273789683210593,-2.627716740525791,0.3561141926910981,0.4051009385199379,9.753909737559342,2.6825024430679
3.0517578125,-5.180461221175801,0.19977511193801087,8.222003292816852,-2.5711913529083548,0.23019249239844863,0.3441111299927606,9.720001373793488,2.604309126546271
3.056640625,-5.166175855172041,0.16126851476966075,8.179822398422331,-2.571191759828585,0.23019095204530599,0.3441719696422278,9.675994779357326,2.6043174316702165
3.0615234375,-5.29600373483058,0.16151269375618543,8.183958743097062,-2.157185619304588,0.28511749937380837,0.8328779233375168,9.749406270040174,2.329898585725719
3.06640625,-5.190476443038515,0.00744844250548322,8.274114433729649,-1.8533739832177922,0.7801798869620293,1.320640996778977,9.767398366376115,2.4057781319278053
3.0712890625,-5.180435675416083,0.1853589216030156,8.273768609707384,-1.4370444122177128,1.023922275606184,1.502611307109624,9.763530033953947,2.3176182190823384
3.076171875,-5.0600621869287705,0.2284231085551949,8.32122982718311,-1.1852387432670475,1.894928180140094,2.1732612574811343,9.741625751839898,3.1174682323479703
3.0810546875,-5.093799584340013,0.17559705253700555,8.363525903664435,-1.2338353885303392,2.5227370217325866,1.988122464670908,9.794191853927927,3.4408113550933215
3.0859375,-4.939735596193658,0.24263782386413565,8.387566249415256,-0.7480705414841303,3.391889331800881,2.1683317760156924,9.737100618880454,4.094653277763619
3.0908203125,-5.050529350569733,0.2043559526991027,8.297808816577277,-0.42997345554626926,4.828633428395006,1.9804567845519618,9.716132936144785,5.236677098482014
3.095703125,-4.997655221435939,0.11772933324157461,8.458133069353352,-0.34706705529997484,6.1407357360982635,2.650379883901781,9.824990225294892,6.697283363458657
3.1005859375,-4.983835217136863,-0.08429241818396586,8.350465424269087,0.7513575623543686,8.441735615644543,2.8258110582557197,9.725018842411075,8.933792393374102
3.10546875,-4.9689151722998,0.04555255263465625,8.510150101682555,1.4183187631506262,9.558224352501178,3.188504465749051,9.854686589523295,10.175354618624027
3.1103515625,-4.9160707826929615,0.03102397582535252,8.496303199030619,2.4507733733239903,11.357160488385034,3.916231876221573,9.816103222632764,12.260842409665903
3.115234375,-4.859279243910757,-0.2768836690847395,8.342024257998704,3.2074796653625435,14.289055961680614,4.274759773814811,9.658086148795038,15.255773241746214
3.1201171875,-5.088955335952049,0.06022908690356033,8.631873967865342,4.005351387565695,16.154762112718366,4.818828633428169,10.02049610305475,17.327443205930365
3.125,-4.939811521096633,0.1512938236407306,8.51004545634736,4.5061884284269,17.83639233941473,5.487035860857533,9.841011195712014,19.197661013164012
3.1298828125,-4.853140535620146,0.16076556866922215,8.590354666726967,5.543906224726723,20.076618265150593,5.356276844513852,9.867776442882494,21.505701542340287
3.134765625,-4.963451770066294,0.3869463660528425,8.373037624394295,6.042165456756928,21.6976973481562,5.412488205285601,9.741321266825059,23.164474140186453
3.1396484375,-4.963414913208512,0.32927021073069607,8.523661939273325,6.414388515002731,22.7555589447642,5.898622764297005,9.86897762320657,24.36705959744671
3.14453125,-4.583723856137681,0.13144295450180454,8.765606941142252,7.753689271279409,25.493711939606488,5.398235895902971,9.892606667922013,27.18804878182697
3.1494140625,-4.703624307762014,0.27112278840874826,8.750668993827539,9.215267177044803,28.416137991935845,5.4485644895544,9.938400124491814,30.365850926952337
3.154296875,-4.367172649402031,0.1695209416855237,8.827607681480963,10.914423601443003,31.45988647538652,5.620250947191729,9.850258457395766,33.770346760217805
3.1591796875,-4.156481110057459,-0.3117186331530187,9.050624100430792,13.99413096570331,36.11194217947528,5.8456778752843785,9.964301296720103,39.16733357379095
3.1640625,-4.084442626680236,-0.39358665081359506,9.140475641852365,18.215104292950134,42.252489543410675,5.452292736339889,10.019275272275816,46.33346946972376
3.1689453125,-3.4262728593210094,-0.8083197808217006,9.464062077450738,26.29867925374196,50.84468008962794,4.1241345378310905,10.097583749612012,57.3917285816862
3.173828125,-2.6022022155553524,-0.32405243735854733,10.016853084853548,34.885319065733405,61.37130489097915,2.728051797617761,10.354410271779809,70.64605308826552
3.1787109375,-3.561644090141984,2.8371172354517826,9.638907719413911,20.14602276958589,68.83470579852975,8.931561042073547,10.66035106626034,72.27621834636275
3.18359375,-2.7153054254359716,-1.593298903550873,10.465929889508221,20.624966130715727,79.3464501338792,10.925291069811031,10.92918905507449,82.70798245454571
3.1884765625,-4.213246525130017,-0.20088859306634624,9.63331299514467,26.358225846187338,94.73308216196325,11.302565506285978,10.516297911849374,98.97909331110174
3.193359375,-4.170265642006191,-0.27312468212140095,9.52548829872905,23.390995175534094,106.47937654158397,14.894103614464017,10.401953660063347,110.03104383066022
3.1982421875,-3.523007328797387,-1.3321877057620135,10.057372727846486,26.204402601634992,122.84340389294019,17.050488430887913,10.739508876525678,126.75918803559941
3.203125,-3.515013753313859,-0.06262436526523465,10.195719063131781,27.055584857698072,138.17495201386566,17.989729157597715,10.784800911997369,141.94348308812877
3.2080078125,-3.8082931671752,0.06771929064683903,9.968407859366552,24.811150161527205,151.23302280069416,19.494509927153157,10.671309104330165,154.4896639748854
3.212890625,-3.9012576343118375,-0.6341934322217312,10.030679333209362,28.044374788405804,164.83960600592948,20.12654092468594,10.781305130846775,168.41514277242322
3.2177734375,-3.8772836773508166,-0.48043032986838047,9.654202534486561,30.67981047250158,177.8906209137644,20.82291922827806,10.414786056054885,181.71383476472187
3.22265625,-4.140997290842859,-0.061603281088136966,9.449903796766634,32.24477989157348,190.20477025947213,21.829803473738654,10.317574099329414,194.14973803592073
3.2275390625,-4.0499118320289575,-0.25890521931989136,9.615340117912485,32.93498274844287,203.03482332568322,22.347409722179712,10.436646173121732,206.8991524700442
3.232421875,-3.789300919197727,0.04360658233473532,9.808639526792534,34.754780280819716,216.66416103417484,22.30881137139973,10.515232396709667,220.56503914676867
3.2373046875,-3.823084098706233,-0.028454986774983138,9.850977528070784,36.781146997513,232.04444939832635,22.327035824221685,10.56686045950302,235.99994872821728
3.2421875,-3.4327324077912498,0.27379744391689836,9.964891322031976,36.6741049888028,250.15384564814582,21.118988690914296,10.54313406363136,253.70839196331892
3.2470703125,-3.209217991613019,1.0525020405179244,10.363920663962274,33.14470720221855,271.1977180871859,19.238459147933053,10.90035284712799,273.8921178522745
3.251953125,-2.970371973025999,0.5662798995964279,9.994485501986722,33.01974538172952,295.13285615200385,18.20075966983256,10.441911847561638,297.5314672737535
3.2568359375,-3.431159464816537,0.7403393437601505,10.363636393878457,34.55520149211382,319.9222427853696,16.665964774767616,10.941933874843212,322.21430409101225
3.26171875,-3.4780169017573823,1.4328347886651973,9.999780086392777,34.83870964664347,347.55622256716356,12.862385314900333,10.683876584682958,349.53469712031136
3.2666015625,-3.6163194947868837,2.178362975119989,9.456692655567414,33.64845851409307,375.21667344681083,7.654409301704248,10.356257428318974,376.8001602635319
3.271484375,-4.72587729870975,2.156625527799283,10.571229226101023,32.161734065855484,402.56636284407364,3.303729186993596,11.778617799232139,403.8625610998996
3.2763671875,-6.325111724350365,2.4099395949459614,11.814713593391458,30.969825478530034,425.82543362793757,3.3097544050507697,13.616251483821516,426.96297789013676
3.28125,-9.826252956810402,0.8830239186993553,14.568186930273415,29.5797375374435,447.45408231242084,5.156647999489736,17.59451757928047,448.460374692598
3.2861328125,-7.413868344818928,-1.030949163415159,13.012077507870629,38.893580475072085,468.34071377370674,12.12491257010052,15.011411029036788,470.1092939786115
3.291015625,-10.008865921693042,1.0804685334672597,14.261259414101493,46.986252156729485,497.4647056630525,15.460294039169634,17.456469556200066,499.91785521617527
3.2958984375,-12.812128523924404,1.956644446304504,16.76325152883354,54.29146610280454,504.6803779798814,17.44212721267991,21.189282588652016,507.8917945893704
3.30078125,-12.736620336918126,2.158139923794328,15.112366295279655,65.04116415852216,517.5481479430664,18.181027532128724,19.881214263222855,521.9358085402055
3.3056640625,-15.6126013810673,-0.8513078091015059,16.79481237403485,79.01535842768034,519.923234768299,14.771665507237744,22.94654155965504,526.1005597994022
3.310546875,-13.503911814718169,2.1975533601736745,12.682156042543477,91.78903869722309,539.3075814073555,5.387481067475084,18.65534660514024,547.0894990224764
3.3154296875,-16.529266778852772,2.7278920848622894,15.122797223512974,83.9582163990902,550.5425639946426,-3.562165726583122,22.568939969272634,556.919011971557
3.3203125,-17.018871781273635,0.742873843400072,15.811655542133652,82.66207125494472,550.1825486820072,-2.2721170267536994,23.24225267132525,556.3623076864302
3.3251953125,-20.241717749827668,2.7348153130685353,14.951391188805342,76.07480303506435,546.7729311327878,-2.490244239777432,25.31304902102804,552.0454829022134
3.330078125,-27.390937917967232,5.59098815206612,18.441251972700528,63.46553952998453,530.910856168641,1.7420038785462266,33.490332976294965,534.6936005630367
3.3349609375,-31.528704934446004,0.017538177877643234,27.89796482800902,61.32612950541063,483.37787833334124,8.775036172454874,42.099358474635586,487.33157981192306
3.33984375,-26.97665164313351,-2.0639085173752334,26.53497249031902,72.12886905825029,439.9760597831621,13.814698386811186,37.89596571279137,446.0631713395059
3.3447265625,-19.380525560437857,1.2544562488897808,26.697220817165434,77.16684676657327,407.50420992088254,15.959462603789854,33.013936918211606,415.05313851329964
3.349609375,-13.202217155471258,0.01217969251991086,28.57048349957392,83.14830603279835,374.9556153390427,18.836686118769293,31.47334131554124,384.5259094187817
3.3544921875,-1.834362629380784,-3.4428861919345226,27.574140045627175,86.73199116976097,350.9766674897473,16.864095264893077,27.84872619784507,361.9274196901687
3.359375,11.547824409319489,-11.125645054150754,18.238505851993764,143.48641812530494,353.77046066315125,-3.3012043779583995,24.285290242709372,381.77583602762644
3.3642578125,-14.408540230360854,-12.073618088241043,12.455498733176903,152.35849000575516,379.79422120666936,-67.41953730488213,22.55033778023735,414.73142387479953
3.369140625,-29.408079230916535,-0.4846522907617876,37.25799138723291,141.35907961009406,292.1424682234777,-106.57780982544502,47.468178120778205,341.5968979295733
3.3740234375,-30.495321880571076,1.8655997835232154,44.46259359666908,129.30595289288496,168.24458264637292,-131.173320609592,53.947820609311705,249.46484538534884
3.37890625,-23.568587015114932,0.8755346486342566,40.172859152310004,116.75872787304507,73.97389170153762,-153.8070819565521,46.584369345106964,206.7881903010715
3.3837890625,-17.11654944324306,5.820833766483439,37.30248912431382,89.16637154173135,3.3220421593186384,-167.0955764431113,41.452793216495905,189.42705573619102
3.388671875,-7.592313382168469,10.40853504492402,30.561574359283885,46.42586286827492,-52.591693253171506,-175.0505428711266,33.16610697070888,188.58403830063583
3.3935546875,0.3240287591094085,10.555675499305806,23.08969509948002,8.73321095649315,-85.79285542241125,-177.9889847703075,25.390181166551894,197.77957860887994
3.3984375,3.951253278720632,9.211137617625258,18.852190596717612,-23.931809055409623,-100.65871860893992,-177.92575225789406,21.35093789458439,205.82148195267624
3.4033203125,4.2781123689716,8.18098215993829,16.70657461405603,-46.77780053916876,-109.41469123271744,-174.72009420110257,19.087701534700237,211.392640833297
3.408203125,4.892722413521817,6.775215525458967,14.671206401389378,-58.00772033918317,-117.10247204763796,-167.68923555000822,16.88450696065383,212.59718788818176
3.4130859375,5.2582726044904025,5.499875733638596,13.22234863104397,-60.77122980295186,-121.9800764771868,-157.99339576935657,15.255443854226964,208.64849516801232
3.41796875,4.885227725792386,4.581970142645889,12.710098643111069,-56.247480690453074,-127.53490413440494,-146.5398079017285,14.366854486579966,202.2445207081523
3.4228515625,3.6804502026740282,3.51663799797582,12.641334814214554,-43.874380107338716,-135.53412218324618,-131.85516887918206,13.627758523992256,194.11400018016207
3.427734375,2.5392878501787925,2.8070903614349594,12.793112980187475,-27.24033108456016,-145.66801620957938,-115.89071415006666,13.341344715101545,188.1272553625423
3.4326171875,1.3031844538888184,2.6266947574097004,12.919803013800669,-7.3404094579023,-157.863972507107,-97.23543346120358,13.248363105866096,185.55227012117757
3.4375,0.45285257386510336,3.0754684157819825,12.684662111236612,10.59386031491539,-171.34371200154396,-79.49035249939638,13.06002428429482,189.18143053513015
3.4423828125,0.055785030080266224,4.08601884114701,12.37501871453537,24.98713825257675,-185.58780419326598,-61.122285456856844,13.032258059326866,196.98508553390766
3.447265625,-0.3889807632201996,5.298616097493918,11.98477285608553,33.0276998572534,-199.41576151453006,-45.433172171040134,13.109592632677094,207.17540402230213
3.4521484375,-0.887142428178292,6.323756699708396,11.547674078581995,33.56397351083269,-211.3055220158015,-32.852346800660264,13.195669634775472,216.4620997831193
3.45703125,-1.3658886296117223,7.406575403187347,11.148158122508345,26.680180662255133,-223.58420086959188,-20.986467313787703,13.453789075054328,226.14632150220189
3.4619140625,-1.8792644215255772,8.066282524639146,10.782339136476319,15.747916243023942,-234.79010556539356,-12.235605910418247,13.59615334524069,235.63552488833471
3.466796875,-2.470694273354668,8.211602796855711,10.511367383772832,1.6295130200970505,-246.38287321083553,-4.76144514489415,13.565529660221873,246.4342648338034
3.4716796875,-3.1545845658492757,7.823339126226349,10.391658771353953,-12.61581081542298,-258.40938259564575,1.9181119126776962,13.384416718232291,258.72426799452523
3.4765625,-3.76701953887931,7.112761625295268,10.3529196015377,-23.666052232278247,-269.29181490750534,8.280513359608635,13.113533407151369,270.4565223948901
3.4814453125,-4.687602301138384,6.1911890142992245,10.407359821115246,-31.388163331409338,-281.66473682301205,14.821838939320196,12.985283023122031,283.7955737435646
3.486328125,-5.4016619286787355,5.192275591473993,10.406433364707311,-35.331944576619556,-293.2164012117509,21.290280858604756,12.823085930603733,296.1038336566652
3.4912109375,-6.076957628833257,4.294286039367979,10.45248551841529,-35.7015793386287,-305.7004545465472,28.48656171165278,12.830618072533637,309.0936021262649
3.49609375,-6.530731858792896,3.607441406838256,10.343840427512433,-33.060523578161096,-317.4760757887916,35.24482759673011,12.75378872747484,321.1327681658101
3.5009765625,-6.815630240483882,3.170339349019898,10.21657265280123,-29.290829035758314,-328.64311576570134,42.30475208336249,12.683935664174122,332.64687320734726
3.505859375,-6.955930067445301,2.9829840799745924,9.868344829627338,-25.090662259213858,-338.5607610180232,48.44216537093159,12.43653435652409,342.9279423137369
3.5107421875,-6.922508971070131,3.030948085803128,9.5626867884908,-22.850663505469644,-346.0676183717327,54.14983869377121,12.188221993718221,351.0230111241781
3.515625,-7.01853789750236,3.0984497031190577,9.548011010037804,-22.95113080574544,-352.53050039426154,57.77870837441485,12.248460271774512,357.97051171137906
3.5205078125,-7.259070756479786,3.074848140744334,9.50938927217944,-23.739629302609853,-357.7894271032482,60.36554395051395,12.352217763060217,363.62184071193707
3.525390625,-7.783502869445437,2.8738904121828606,9.672149332169436,-26.81909762144717,-362.6330922024056,61.365087130428485,12.743336914783647,368.76509796350325
3.5302734375,-8.370019087364488,2.798103417174884,9.947237914075167,-29.19841516344325,-367.6719858944777,61.444679569712804,13.297899998694007,373.91267069607375
3.53515625,-8.779327977307815,2.3997977583853625,10.270836166694,-31.401915609217276,-372.71260439125916,61.27888145454169,13.723181284868339,379.0196130655556
3.5400390625,-9.130855838381843,2.0110112491320713,10.641696132912742,-32.837519292253035,-377.3848559449598,59.946722619564326,14.165535329478287,383.5247602472285
3.544921875,-9.857405672394533,1.5556401374658306,11.19448569851815,-32.094534340594166,-381.90041889181856,58.363614577898815,14.996832094871836,387.66519135832095
3.5498046875,-10.90677432807571,0.8411893705401411,11.727622589619534,-29.361971522815757,-387.0725005836989,57.022195616893235,16.037532771758737,392.3503241655287
3.5546875,-11.960518100074149,0.39120173517603685,12.090851166539252,-24.52358803621072,-392.8376237137187,55.0646606358527,17.011634664288135,397.43543101509283
3.5595703125,-12.499458776828954,0.22871167434384823,12.102965865923194,-17.93666261504683,-399.50535903627053,52.92133904167772,17.400303488598396,403.394253665604
3.564453125,-12.567634692320764,-0.054917358213377475,11.948088774354247,-10.825720770679704,-403.04940299160154,50.95277424499847,17.34085589109452,406.4015288915052
3.5693359375,-12.530015895316467,-0.2522199002939631,11.61947086760187,-3.494955832358104,-403.96411831021896,48.487477887556096,17.09026086571051,406.87867861356284
3.57421875,-12.612457921703175,-0.42523574754799026,11.37493122951175,4.419270893985671,-401.69236894316526,45.951554385945514,16.98952561856415,404.3362889636434
3.5791015625,-12.804900459774636,-0.4152785399872905,11.270602913541648,11.954533473893902,-397.4085595027811,42.86036562105536,17.063540725337287,399.8918415994811
3.583984375,-13.00242269610128,-0.5832142340652932,11.298327634695681,19.417198601857965,-390.3007281368685,38.59890512210658,17.2352935035013,392.6850665130253
3.5888671875,-13.26171162069032,-0.6115031858484351,11.682909562461171,26.53050260740203,-382.87200338794145,33.60228962015948,17.684380314314158,385.25829311594873
3.59375,-13.6837376852574,-0.4518854745889802,12.334444582763272,33.612335353497855,-373.6213931270034,27.192597587487075,18.42789734848597,376.11457277488444
