time_s,acc_x_mps2,gyr_x_degps,acc_y_mps2,gyr_y_degps,acc_z_mps2,gyr_z_degps,acc_norm_mps2,gyr_norm_degps
0.0,-3.782817171,-0.54878,-0.7805112734999999,3.78049,8.8872765625,-0.60976,9.69033478759299,3.868471453442561
0.005000000000000001,-3.8115506555,-0.4878,-0.809244758,3.84146,8.9015942715,-0.67073,9.717055935425842,3.929967239621725
0.009999999999999998,-3.806745397,-0.4878,-0.818855275,3.96341,8.8633483365,-0.60976,9.680949241325116,4.039600837421935
0.015000000000000003,-3.806745397,-0.54878,-0.7996342409999999,4.14634,8.8633483365,-0.60976,9.679342393525381,4.2267129239634915
0.019,-3.8115506555,-0.54878,-0.7901217905,4.32927,8.90639953,-0.73171,9.719884949486266,4.424831945441544
0.024999999999999998,-3.7733047204999997,-0.42683,-0.7948289824999999,4.63415,8.8729588535,-0.85366,9.674656605847755,4.731412629120398
0.030000000000000002,-3.830673623,-0.54878,-0.7709007564999999,4.81707,8.8872765625,-0.97561,9.708348627891462,4.945415831393757
0.035,-3.782817171,-0.54878,-0.7901217905,5.0,8.892081821,-0.97561,9.695520476198997,5.123765642620669
0.039999999999999994,-3.782817171,-0.67073,-0.775706015,5.0,8.868153594999999,-0.91463,9.672413026511586,5.127029039297515
0.045,-3.7972329465,-0.60976,-0.8140500165,5.42683,8.844225369,-0.97561,9.659294894401553,5.547441390280748
0.05,-3.7876224295,-0.4878,-0.8379782425,5.85366,8.9015942715,-1.09756,9.710132428435593,5.9756106122470865
0.05499999999999999,-3.7780119125,-0.60976,-0.7469725305,6.28049,8.858543078,-1.21951,9.659457926669342,6.426785085701871
0.06,-3.7972329465,-0.67073,-0.8715169855,6.70732,8.892081821,-0.97561,9.708122321919864,6.8110083825671515
0.065,-3.8259664309999994,-1.03659,-0.924178696,7.2561,8.90639953,-0.73171,9.737354773307963,7.366200211927449
0.06999999999999999,-3.8211611724999996,-1.21951,-0.8522959514999999,7.68293,8.8776660455,-0.79268,9.702609726799716,7.819396371037856
0.075,-3.8211611724999996,-1.21951,-0.842783501,8.29268,8.848932561,-0.60976,9.67549296960653,8.404020078515996
0.08,-3.792427688,-0.85366,-0.8954452115,8.65854,8.8537378195,-0.42683,9.673313975673068,8.710983536667946
0.08499999999999999,-3.7780119125,-0.67073,-0.8810294359999999,9.32927,8.9015942715,-0.30488,9.710199145871933,9.358317652238568
0.09,-3.8020382049999997,-0.97561,-0.8331729839999998,10.18293,8.8872765625,-0.30488,9.702234610228146,10.234101331890358
0.095,-3.7780119125,-0.91463,-0.8283677254999999,11.21951,8.925620563999999,-0.30488,9.727603484524932,11.260857182799185
0.09999999999999999,-3.7110324929999994,-0.85366,-0.8235624669999999,12.13415,8.9208153055,-0.36585,9.696956378987995,12.169641647994407
0.104,-3.7349607189999996,-0.79268,-0.7996342409999999,13.35366,8.930327755999999,-0.4878,9.712883213620794,13.386057142340308
0.11,-3.768499462,-0.91463,-0.7421672719999999,14.63415,8.939938273,-0.4878,9.73010260890256,14.67081603386124
0.115,-3.7636942035,-0.79268,-0.7134337874999999,16.03658,8.983087532999999,-0.73171,9.765768963688732,16.072823000422172
0.12000000000000001,-3.7205449434999998,-0.73171,-0.751777789,17.7439,8.987794724999999,-0.97561,9.756437799697949,17.785758392775946
0.12499999999999999,-3.653565524,-0.97561,-0.6847003029999998,19.57317,9.011821017499999,-1.34146,9.74834722373718,19.643327458773374
0.13,-3.643955007,-1.34146,-0.6177208835,21.46342,9.021333468,-1.52439,9.749074044431568,21.559259678850292
0.135,-3.6248320394999998,-1.58537,-0.7660954979999999,23.78049,9.030943985,-1.82927,9.761365626122673,23.903374895815443
0.14,-3.643955007,-1.70732,-0.761388306,26.52439,9.0357492435,-2.19512,9.772557732598193,26.669772370024084
0.14400000000000002,-3.629637298,-1.64634,-0.6751878524999999,29.14634,9.045261693999999,-2.86585,9.769693171443002,29.33313258098596
0.15000000000000002,-3.6248320394999998,-1.70732,-0.670382594,32.31707,9.121949697,-3.59756,9.838637426570932,32.56148634385261
0.155,-3.4907751339999997,-1.95122,-0.5506433974999999,35.67073,9.241590827,-4.39024,9.894226609546276,35.9928110249658
0.16,-3.481164617,-2.92683,-0.392658266,39.39024,9.3613300235,-5.36585,9.995358293397661,39.86163176952243
0.165,-3.552949295,-4.7561,-0.42619700899999996,43.23171,9.380452990999999,-6.52439,10.039820262319559,43.97918714126263
0.17,-3.5577545534999997,-5.85366,-0.5745716235,47.86586,9.423602251,-7.86585,10.08920360576263,48.85977369122477
0.17500000000000002,-3.4524311324999997,-6.89024,-0.46444294399999997,52.80488,9.524120413499999,-9.5122,10.141196064751632,54.095403759580165
0.18000000000000002,-3.4620416494999997,-7.7439,-0.36873004,57.92683,9.5576591565,-10.73171,10.172047128139909,59.419316897647015
0.185,-3.4859698755,-9.02439,-0.42619700899999996,63.59756,9.619931384,-12.62195,10.240933048128094,65.46298858613316
0.19,-3.4763593585,-10.54878,-0.46924820249999993,69.63415,9.691716062,-14.7561,10.307018409385364,71.95786331542162
0.195,-3.4524311324999997,-11.64634,-0.46924820249999993,76.7683,9.715644288,-17.07317,10.321493037887093,79.50158648816073
0.2,-3.3853536465,-13.04878,-0.46444294399999997,84.5122,9.80665,-19.69512,10.384927095680654,87.75238093717344
0.20500000000000002,-3.2992512595,-14.81707,-0.4931764285,92.98781,9.80665,-22.62195,10.358506942867796,96.84023437488933
0.21000000000000002,-3.4476258739999994,-16.52439,-0.5075922039999999,102.31708,9.768305998499999,-25.97561,10.371286134948111,106.84836283009021
0.215,-3.653565524,-18.29268,-0.5698644315,111.70732,9.7635988065,-29.57317,10.440361495788277,116.99452921830874
0.22,-3.8881405919999996,-19.45122,-0.8810294359999999,120.67074,9.725254805,-33.65854,10.510681764397216,126.77805317391335
0.225,-4.103690759,-19.45122,-1.029502117,129.57318,9.7061318375,-38.29268,10.588160732692934,136.50600088048586
0.229,-4.41495383,-18.41463,-0.8379782425,138.17073,9.816260517,-43.59756,10.795971257536218,146.05134872613604
0.23500000000000001,-4.912935516999999,-17.37805,-0.4310022675,146.21951,9.955122680999999,-49.08537,11.109777942990165,155.21441709609164
0.24000000000000002,-5.3390344595,-16.34146,-0.0048052584999999995,152.07318,10.2280417505,-53.59756,11.537683914036162,162.06786796955652
0.24500000000000002,-5.8466266634999995,-15.18293,0.9336911465,156.5244,10.390832140499999,-56.70732,11.959273183243596,167.17095830414837
0.25,-6.4595422885,-14.20732,1.5610225469999999,159.32927,10.764367439,-58.47561,12.650457870407918,170.31459475097077
0.255,-6.799538844,-15.36585,1.733423454,159.51219,11.03248125,-59.87805,13.074942749149752,171.07199939388417
0.26,-6.7947335854999995,-16.21951,1.575340256,157.62195,10.927157829,-60.97561,12.963521112721336,169.78155565701093
0.26499999999999996,-7.671055829499999,-14.7561,1.3120317034999998,156.21951,11.381990255999998,-63.10976,13.788264100965499,169.13048098763184
0.26899999999999996,-8.513741264,-12.19512,0.7230443045,151.46342,12.2152613065,-65.48781,14.907018218365547,165.4646240394209
0.27499999999999997,-8.260043228499999,-11.64634,0.474053461,142.80489,11.927926461499998,-68.96342,14.516489606358922,159.01203458041815
0.27999999999999997,-7.838651478,-11.89024,0.7326548214999999,135.67073,10.764367439,-72.92683,13.336148111160966,154.48704579944365
0.285,-7.14904785,-13.90244,1.154046572,132.01219,10.002979132999998,-76.82927,12.34910118944565,153.37285573165352
0.29,-7.0628473965,-14.81707,0.924178696,128.90244,10.3572933975,-80.36585,12.570260384347023,152.62389867763503
0.295,-6.2967518985,-13.29268,0.38304774899999994,122.68293,11.381990255999998,-84.14635,13.013282146981837,149.35998417678613
0.3,-5.5066301079999995,-13.78049,0.7948289824999999,113.65854,12.061983367,-85.91463,13.283304220092933,143.14150085704915
0.305,-5.1283876175,-13.53659,1.4077446075,103.78049,12.397174664,-85.97561,13.489701408296485,135.44532065870825
0.31,-3.51470336,-11.58537,1.6615407094999999,92.2561,12.9095721265,-85.12196,13.482244239273623,126.0601319192095
0.315,-2.427734274,-11.15854,1.9249473284999998,80.36585,12.737171219499999,-83.59756,13.108579121991548,116.49778924558053
0.32,-1.2162207329999999,-11.58537,2.442051983,69.63415,12.157794337499999,-81.09756,12.460127363394017,107.51720737729845
0.32499999999999996,-0.1005181625,-13.35366,3.18912258,61.34146,11.516145228,-77.19512,11.949987767510281,99.4996557890609
0.32999999999999996,0.0048052584999999995,-14.39024,2.6910428265,55.2439,10.673361726999998,-71.40244,11.007378667964264,91.41813787439119
0.33499999999999996,-0.8858346944999999,-11.70732,2.442051983,50.73171,11.008553024,-64.7561,11.310904502995049,83.09103578796271
0.33999999999999997,-0.44531997649999994,-3.23171,2.6863356345,42.62195,12.119450336,-55.79268,12.421585465206324,70.28440590137332
0.345,0.148472681,5.30488,2.7820485385,30.54878,12.339707695,-45.4878,12.650305300885647,55.05006503304787
0.35,0.9289839544999999,12.19512,2.98318293,18.65854,11.587929906,-36.09756,12.00177116462112,42.42518007857598
0.354,1.570633064,16.52439,3.0837010924999997,9.93902,10.7738798895,-27.43903,11.31603236664637,33.537142853460246
0.36,1.9679985219999998,18.04878,3.0597728665,3.59756,10.409955108,-19.5122,11.02734752910867,26.82213351472996
0.365,2.188255881,18.90244,2.8395155074999994,-1.70732,10.098790103499999,-12.19512,10.716196791428086,22.55965716384892
0.37,2.197866398,19.5122,2.4564677584999997,-6.46341,9.8593117105,-5.30488,10.395714403388059,21.22836238343646
0.375,2.0734200095,20.4878,2.044686525,-10.97561,9.820967709,1.40244,10.243594108638444,23.284776178131924
0.38,1.905824361,22.31707,1.733423454,-15.79268,9.80665,8.10976,10.139393847186248,28.517162590708427
0.385,1.75735168,24.57317,1.5083608364999999,-20.85366,9.80665,14.7561,10.076399235976401,35.446555635978235
0.38999999999999996,1.75735168,24.57317,1.5083608364999999,-20.85366,9.80665,14.7561,10.076399235976401,35.446555635978235
0.39399999999999996,1.5897560314999999,26.76829,1.297615928,-26.15854,9.9024609705,21.21951,10.112856402054057,43.02415797079357
0.39999999999999997,1.1300202794999998,28.90244,1.072651377,-37.31707,10.041323134499999,33.53659,10.161481048553215,57.90179289250549
0.40499999999999997,0.9050557284999999,28.41463,0.9193734375,-43.04878,10.1274255215,39.14634,10.209266432158618,64.7535681867872
0.41,0.6655773355,27.07317,0.7709007564999999,-48.84146,10.1848924905,44.2683,10.235688360288567,71.26097903951714
0.415,0.392658266,25.18293,0.545838139,-54.32927,10.17538004,48.84146,10.197572198630198,77.27443145730287
0.42,0.392658266,25.18293,0.545838139,-54.32927,10.17538004,48.84146,10.197572198630198,77.27443145730287
0.425,0.20113439149999998,22.92683,0.2729190695,-59.81707,10.1370360385,53.35366,10.142703757272447,83.36866577215567
0.43,0.009610516999999999,20.79268,0.0048052584999999995,-65.0,10.084374327999999,57.56098,10.084380052327049,89.27822780579149
0.435,-0.18191335749999998,18.78049,-0.22986787599999997,-69.69512,10.070056619,61.34146,10.074322409964822,94.72534650971777
0.44,-0.7901217905,16.40244,-0.7230443045,-78.04878,10.17538004,67.92683,10.23159051509213,104.76023258513173
0.445,-1.0917743444999999,15.60976,-0.9289839544999999,-82.13415,10.223236492,70.85366,10.323252722780127,109.58980034143552
0.44999999999999996,-1.436478092,14.81707,-1.096579603,-86.15854,10.199308266000001,73.53659,10.358177698775377,114.23865215917334
0.45499999999999996,-1.436478092,14.81707,-1.096579603,-86.15854,10.199308266000001,73.53659,10.358177698775377,114.23865215917334
0.45999999999999996,-1.7046899695,13.84146,-1.1635590225,-90.0,10.247164718,75.60976,10.452952800466436,118.35717900570796
0.46499999999999997,-1.9440702959999998,12.92683,-1.2067082825,-93.65854,10.204113524499999,77.43903,10.457508642871275,122.2122269501763
0.47,-2.1691329135,11.58537,-1.292908736,-97.07317,10.1227183295,78.96342,10.432937121177783,125.6687822411843
0.475,-2.3654620465,9.93902,-1.3598881554999998,-100.12196,10.041323134499999,80.06097,10.405425353167743,128.5805191704517
0.479,-2.5617911795,8.41463,-1.422160383,-102.7439,9.979050907,80.73171,10.400325533695385,130.9378630678346
0.485,-2.7724380215,6.76829,-1.5179713535000001,-104.93903,9.8449940015,81.15854,10.339949540625256,132.83342343625944
0.49,-3.031039382,5.79268,-1.608878999,-106.70732,9.792332291,81.15854,10.376196946185027,134.18910499029494
0.495,-3.2896407425,5.54878,-1.699884711,-107.86586,9.888045194999998,81.28049,10.558635424323072,135.17525945108483
0.5,-3.663176041,5.97561,-1.8339416165,-109.14635,9.9742456485,81.46342,10.782753675045546,136.3265287143005
0.505,-4.0078797884999995,6.95122,-1.9105315529999998,-110.79269,10.0317126175,81.7683,10.9703459040353,137.87456074930756
0.51,-4.319142859499999,8.04878,-1.896213844,-112.31708,10.0795690695,82.0122,11.128716664996382,139.30509778200798
0.515,-4.5058614755,8.23171,-1.790890423,-113.47561,10.0221021005,82.31708,11.133400498339878,140.42997106786927
0.519,-4.706995867,7.86585,-1.5993665485,-114.45123,9.9885633575,82.56097,11.157292744891459,141.3409686257891
0.525,-4.855468548,6.46341,-1.470016835,-114.93903,9.9167786795,82.56097,11.13907642912941,141.66534528073512
0.53,-5.075725907,4.39024,-1.355082897,-114.87805,9.854506451999999,82.2561,11.167387364699161,141.35878666099995
0.535,-5.2337110385,1.82927,-1.297615928,-114.57317,9.854506451999999,81.95122,11.23329140295157,140.87710946804026
0.54,-5.396501428499999,-0.85366,-1.259369993,-114.20732,9.825772967499999,81.82927,11.280693899575729,140.4993598053418
0.5449999999999999,-5.578512852499999,-2.92683,-1.201903024,-113.17073,9.830578226,81.64635,11.366822105677265,139.57903471117822
0.5499999999999999,-5.8226984375,-4.5122,-1.1587537639999999,-112.07317,9.897655711999999,81.58537,11.541668682341186,138.69725296748237
0.5549999999999999,-6.100422765499999,-5.67073,-1.0343073754999998,-110.54878,9.955122680999999,81.52439,11.721323187192006,137.4751472197553
0.5599999999999999,-6.469152805499999,-6.40244,-0.9289839544999999,-109.08537,10.074763810999999,81.52439,12.00890565605635,136.33354448140267
0.565,-6.923985232499999,-7.19512,-0.842783501,-108.17073,10.189697749,81.89024,12.34835194450707,135.8627542331043
0.57,-7.302325789499999,-7.56098,-0.7134337874999999,-107.86586,10.251969976499998,82.31708,12.606975771540165,135.8981744977702
0.575,-7.680568279999999,-8.17073,-0.545838139,-107.7439,10.323754654499998,82.5,12.879013104428441,135.9476326235323
0.58,-8.0684212875,-9.08537,-0.37353529849999995,-108.29269,10.347780946999999,82.5,13.126900670718312,136.44083206823754
0.585,-8.336633164999999,-10.30488,-0.268113811,-109.14635,10.29502117,82.56097,13.249860317534484,137.24223124635435
0.59,-8.489813038,-11.89024,-0.1340569055,-110.0,10.093984845,82.56097,13.190277734952994,138.04959824135128
0.595,-8.638285718999999,-13.59756,-0.06227222749999999,-110.48781,9.8832399365,82.19512,13.126396673719169,138.3780602131859
0.6,-8.8729588535,-15.12195,-0.08620045349999998,-110.67073,9.6486648685,81.40244,13.10853016469481,138.21375144495934
0.604,-9.11233918,-16.28049,-0.18191335749999998,-110.79269,9.4858744785,80.42683,13.154833044279112,137.8714963142313
0.61,-9.2703243115,-17.31707,-0.2586013605,-110.54878,9.1553903735,79.2683,13.031767355014319,137.1290525664175
0.615,-9.3948687665,-17.62195,-0.43570945949999995,-109.57317,8.825004335,77.80488,12.897057935266623,135.5374931798054
0.62,-9.5145098965,-17.0122,-0.6751878524999999,-108.41463,8.489813038,76.34147,12.769444100153882,133.68308415292415
0.625,-9.653470127,-15.48781,-0.962424631,-107.07317,8.1594269995,74.63415,12.676434657402943,131.43360429763578
0.63,-9.7443777725,-13.35366,-1.1348255379999999,-105.36586,7.8290409610000005,72.68293,12.551279199504124,128.69768064079514
0.635,-9.820967709,-10.60976,-1.3120317034999998,-103.53659,7.469921437999999,70.60976,12.40856801658039,125.77015020800167
0.64,-9.9503174225,-7.7439,-1.5083608364999999,-101.34147,7.2927152725,67.92683,12.428502132893922,122.24612780296887
0.644,-10.1801852985,-4.20732,-1.7956956814999998,-99.2683,7.182586592999999,64.87805,12.587702167524327,118.66363511318411
0.65,-10.304631687,-0.60976,-2.001537265,-97.80488,6.847395295999999,61.46342,12.533092514124,115.51587924250241
0.655,-10.309436945499998,3.10976,-2.150009946,-96.15854,6.5601585175,57.9878,12.407365259226756,112.3330778133903
0.66,-10.271092944,6.70732,-2.303189819,-94.14635,6.3302906414999995,54.08537,12.2830213389253,108.7830437519644
0.665,-10.400442657500001,10.12195,-2.4133184985,-91.82927,6.167500251499999,50.0,12.330100283428376,105.04793525117664
0.6699999999999999,-10.620700016499999,12.92683,-2.5330576949999997,-89.5122,5.9472428925,45.67073,12.433235626701263,101.31807568949284
0.6749999999999999,-10.7499516635,14.93902,-2.5617911795,-87.07317,5.588025302999999,41.21951,12.383467268980795,97.48825189246857
0.6799999999999999,-10.793100923499999,16.34146,-2.6001351809999997,-84.57317,5.262444522999999,36.58537,12.28596975667705,93.58500786353228
0.6849999999999999,-10.797808115499999,17.56098,-2.7581203125,-81.40244,4.9320584845,31.58537,12.187086963335872,89.06391443536995
0.69,-10.907936795,18.47561,-2.973572413,-77.80488,4.57774422,26.21951,12.197580094543872,84.15705687181914
0.695,-11.042091766999999,19.02439,-3.1843173215,-74.08537,4.2138194385,20.54878,12.240259051798477,79.20114786035238
0.7,-11.147415187999998,19.63415,-3.409379939,-70.06097,3.9121668845,14.26829,12.296088267180224,74.14596053115436
0.705,-11.2143946075,20.30488,-3.663176041,-65.85366,3.4381134235,7.7439,12.288292356260587,69.34667024753244
0.71,-11.204882156999998,20.73171,-3.816355914,-61.52439,2.9305212194999997,0.91463,12.194339311029502,64.92989228724393
0.715,-11.19527164,21.28049,-3.9600233365,-56.70732,2.4229290155,-6.15854,12.119673136399541,60.88108910946075
0.72,-11.1665381555,21.82927,-4.127618985,-51.46342,2.0063425235,-13.41463,12.07287137284143,57.48871997936813
0.725,-11.19527164,22.86585,-4.228137147499999,-45.4878,1.6568335174999997,-20.67073,12.081239511580305,54.947849128017744
0.729,-11.310205577999998,23.96342,-4.2520653735,-39.39024,1.4412833504999998,-28.10976,12.168734850162874,53.99995474638474
0.735,-11.391600773,25.18293,-4.1467419525,-33.10976,1.2067082825,-35.4878,12.182782189265794,54.67924761262265
0.74,-11.228810382999999,26.21951,-3.9743410455,-26.64634,0.962424631,-42.5,11.95022303280027,56.601591320701395
0.745,-11.0708252515,27.62195,-3.782817171,-19.7561,0.8858346944999999,-49.5122,11.732756735074771,60.03943335719034
0.75,-10.271092944,26.76829,-1.824429166,-10.97561,-1.9679985219999998,-56.34146,10.615880096752798,63.33534147162862
0.755,-15.1649054935,-3.84146,0.6177208835,40.42683,-6.263213155499999,-65.42683,16.41900657006771,77.00490557509566
0.76,-7.072457913499999,-41.64634,0.08139519499999999,77.43903,-4.280798858,-64.81708,8.26749810877825,109.23586802173953
0.765,-1.9105315529999998,-51.70732,-2.7245815695,87.5,-5.674225756499999,-67.80488,6.578017442937931,122.17773403282939
0.769,0.0383440015,-26.40244,-5.2959832659999995,112.2561,-1.1635590225,-64.57317,5.422432905536427,132.1673753579623
0.775,1.072651377,-12.07317,-1.8339416165,138.35367,6.880934038999999,-52.62195,7.20147041085218,148.5145415712559
0.78,-2.3654620465,-13.41463,2.6192581484999997,150.79269,14.671630998499998,-40.06098,15.090151758616004,156.59907334985542
0.785,-3.078895834,-13.41463,4.022295564,141.58537,18.114549680499998,-35.42683,18.80944898948662,146.5654446993653
0.79,-3.8354788815,-15.36585,4.118008468,122.07317,17.3435508575,-34.14634,18.233695410959378,127.68688544822056
0.7949999999999999,-5.669420497999999,-22.98781,3.5673650704999997,103.41463,14.863154873,-33.90244,16.302815557692778,111.231293009596
0.7999999999999999,-5.113971842000001,-31.15854,3.2273685149999998,89.87805,10.5632330475,-34.14634,12.17170932729575,101.0687440415171
0.8049999999999999,-3.667883233,-30.06098,2.044686525,91.46342,7.091580881,-31.76829,8.241639993848546,101.38266107269477
0.8099999999999999,-3.0454551574999997,-28.10976,0.16279038999999998,103.90244,6.1866232189999995,-27.31707,6.897507135283704,111.04997955243441
0.815,-5.0996541330000005,-24.69512,-1.59456129,119.57317,8.537767556499999,-22.43903,10.071870374097077,124.14145964585803
0.82,-8.441956586,-24.69512,-1.6711512265,125.67074,13.374015070499999,-19.26829,15.90357370302984,129.51544635095112
0.825,-12.938305610999999,-37.43903,0.6320385924999999,112.56098,19.5510277725,-22.13415,23.452972345251034,120.67135443892143
0.83,-18.6029208505,-73.59756,4.304727084,83.65854,24.401691061999998,-28.10976,30.984542373948035,114.91523293342271
0.835,-20.245338592499998,-64.57317,2.796464314,37.19512,19.000384375,-29.87805,27.905349913272712,80.28617008841437
0.84,-11.726792069999998,-20.30488,-2.9113982519999997,2.56098,11.492217002,-16.76829,16.675279417623603,26.457934913724845
0.845,-0.3782424905,-6.89024,-2.0302707494999996,-5.30488,7.058140204499999,-7.2561,7.354074370325216,11.325552802490481
0.85,0.2825295865,-10.91463,-1.340765188,9.45122,6.971939751,-3.90244,7.105309152188557,14.956060493288332
0.854,-1.6376124834999999,-18.04878,-1.0630408599999999,21.21951,9.3948687665,-5.42683,9.595592199333078,28.380918730326545
0.86,-4.6447236395,-18.71951,-0.46444294399999997,24.02439,10.994137248499998,-6.70732,11.944045327041279,31.186207064896493
0.865,-5.975976377,-10.79268,-0.7901217905,18.53659,11.334133803999999,-3.59756,12.837413103474564,21.74924247793702
0.87,-4.1132032095,-5.91463,-1.4269656414999998,10.18293,9.5576591565,-2.37805,10.502548268705596,12.013743514171592
0.875,-4.103690759,-5.54878,-1.7956956814999998,7.62195,8.848932561,-1.89024,9.918084910666261,9.615408912183609
0.88,-4.2377476645,-6.46341,-0.9864509235,6.21951,9.619931384,-1.70732,10.558156587459639,9.130877014317957
0.885,-3.5243138769999995,-7.2561,0.07178467799999999,3.41463,9.251201344,-1.58537,9.900033719681854,8.17459988524209
0.89,-3.481164617,-6.40244,0.5267151715,2.56098,8.997405242,-1.03659,9.66174089133579,6.9731180502053745
0.894,-3.9648285949999997,-5.2439,0.06707748599999999,2.19512,9.308668312999998,-0.4878,10.118086327873863,5.705697842017224
0.9,-4.199403663,-4.39024,-0.8235624669999999,0.79268,9.399674025,-0.42683,10.327977441790267,4.481599344977193
0.905,-3.931289852,-4.14634,-1.110897312,-0.4878,9.308668312999998,-0.67073,10.165649930019095,4.22847052354631
0.91,-3.8211611724999996,-4.14634,-0.7805112734999999,-0.91463,9.246396085499999,-0.54878,10.035253416044453,4.281336581127441
0.915,-3.744571236,-4.02439,-0.39746352449999994,-1.09756,9.1171444385,-0.60976,9.864183377617126,4.215703984306773
0.9199999999999999,-3.7780119125,-3.59756,-0.406975975,-1.40244,9.1075339215,-0.54878,9.868443524005814,3.900055819549254
0.9249999999999999,-3.7636942035,-2.86585,-0.73746008,-1.40244,9.11233918,-0.18293,9.886554847792842,3.195840665771684
0.9299999999999999,-3.7397659775,-2.37805,-1.0007686325,-1.58537,9.169806149,0.12195,9.953528632223883,2.860662797657214
0.9349999999999999,-3.7062272344999996,-1.95122,-1.0391126339999999,-1.58537,9.136267406,0.60976,9.91399301461454,2.586979857459273
0.94,-3.6104162639999995,-1.28049,-0.7805112734999999,-1.15854,9.06918992,0.97561,9.79257418927454,1.9833518204796645
0.945,-3.4859698755,-0.36585,-0.45973575199999994,-0.79268,8.939938273,1.64634,9.606551892308223,1.8634975719061186
0.95,-3.4381134235,1.15854,-0.40226878299999996,0.12195,9.169806149,2.43902,9.801417698316166,2.7029438200783975
0.955,-3.605709072,3.23171,-0.6559668185,1.52439,9.284740087,2.86585,9.981875017351243,4.5804814832831715
0.96,-3.7733047204999997,4.39024,-0.9384964049999999,1.89024,9.174611407499999,3.10976,9.96454206145845,5.702439984147137
0.965,-3.6726884914999998,4.63415,-0.761388306,1.70732,9.126656889,3.04878,9.867330889234497,5.803907932875917
0.97,-3.5002875845,4.87805,-0.42619700899999996,1.64634,8.9925999835,2.9878,9.659218991612603,5.9525419812127325
0.975,-3.4907751339999997,4.87805,-0.36392478149999996,1.82927,8.892081821,2.86585,9.559658539618516,5.94598156387152
0.979,-3.629637298,4.7561,-0.5315204299999999,2.13415,9.011821017499999,2.80488,9.729835503953542,5.919665129625154
0.9849999999999999,-3.6918114589999997,4.32927,-0.6512596264999999,2.13415,9.011821017499999,2.62195,9.760457417629942,5.4928860135542585
0.99,-3.6726884914999998,3.65854,-0.555448656,1.82927,8.987794724999999,2.19512,9.725102466492913,4.642164956019982
0.9949999999999999,-3.5864880379999997,3.29268,-0.40226878299999996,1.58537,8.896887079499999,2.07317,9.601006005928099,4.201567977338937
1.0,-3.466846908,2.62195,-0.38304774899999994,1.46341,8.8537378195,1.82927,9.516008955332467,3.516023231365231
1.005,-3.4428206154999996,2.37805,-0.34950900599999996,1.64634,8.925620563999999,1.70732,9.572976171927232,3.35864537879485
1.01,-3.5338263275,2.7439,-0.44531997649999994,2.2561,9.007015759,1.64634,9.685688993420985,3.915279021423633
1.015,-3.596098555,2.86585,-0.5698644315,2.7439,8.9925999835,1.46341,9.701727926034934,4.228906745318464
1.019,-3.5625598119999995,2.7439,-0.555448656,2.92683,9.030943985,1.15854,9.724109464816681,4.175827581510041
1.025,-3.5577545534999997,2.31707,-0.6177208835,2.9878,8.997405242,1.09756,9.694972802521473,3.937054759398198
1.03,-3.5769755874999998,2.2561,-0.5602539145,3.23171,9.021333468,1.03659,9.72075595533292,4.07534729344629
1.035,-3.5769755874999998,2.86585,-0.588987399,3.65854,9.021333468,1.15854,9.722454322371933,4.789595607741848
1.04,-3.643955007,3.23171,-0.6799931109999999,3.90244,9.050066952499998,1.28049,9.779801151801626,5.226149836906707
1.045,-3.6918114589999997,3.04878,-0.7039213369999999,3.90244,9.073995178499999,1.28049,9.821525624714768,5.115051522917438
1.05,-3.6871042669999996,2.92683,-0.6416491095,3.53659,9.054872211,1.40244,9.79781415485065,4.800066731890297
1.055,-3.643955007,2.80488,-0.6320385924999999,3.59756,9.06918992,1.40244,9.794288472394477,4.772486534459788
1.06,-3.643955007,2.80488,-0.6320385924999999,3.59756,9.06918992,1.40244,9.794288472394477,4.772486534459788
1.065,-3.5864880379999997,2.2561,-0.565059173,3.47561,9.030943985,1.46341,9.73345455508558,4.394476181548831
1.07,-3.596098555,1.89024,-0.541130947,3.53659,9.016528209499999,1.52439,9.722269718115388,4.290016428616561
1.075,-3.5769755874999998,1.70732,-0.5123974625,4.02439,8.930327755999999,1.58537,9.63369396144238,4.650167146608819
1.08,-3.5864880379999997,1.52439,-0.6225261419999999,4.26829,8.9208153055,1.52439,9.634904304612139,4.78182279766827
1.085,-3.6391497484999995,1.09756,-0.6559668185,4.69512,8.9782822745,1.34146,9.709956537471294,5.0048281388675075
1.09,-3.6391497484999995,1.09756,-0.6559668185,4.69512,8.9782822745,1.34146,9.709956537471294,5.0048281388675075
1.095,-3.5816827795,0.67073,-0.5937926575,4.93902,8.94954879,1.03659,9.657922385153974,5.091003449360451
1.1,-3.605709072,0.73171,-0.5506433974999999,5.2439,8.954354048499999,0.79268,9.668753926385849,5.353711639274196
1.104,-3.663176041,0.60976,-0.5027869455,5.36585,8.882471304,0.4878,9.621327865024925,5.422370544337596
1.1099999999999999,-3.5673650704999997,-0.06098,-0.5075922039999999,5.30488,8.848932561,0.18293,9.554441420664583,5.308383347093538
1.115,-3.6344425565,-0.06098,-0.588987399,5.42683,8.8537378195,0.0,9.588782624980276,5.427172598075355
1.1199999999999999,-3.6344425565,-0.06098,-0.588987399,5.42683,8.8537378195,0.0,9.588782624980276,5.427172598075355
1.125,-3.596098555,-0.73171,-0.5315204299999999,5.30488,8.8729588535,-0.2439,9.588734932236083,5.360656540807292
1.13,-3.596098555,-0.97561,-0.44051471799999997,5.18293,8.8058813675,-0.42683,9.52205464658397,5.29119666104937
1.135,-3.6152215224999997,-1.46341,-0.46444294399999997,5.06098,8.8201990765,-0.4878,9.543659971628811,5.290844566654742
1.14,-3.6344425565,-1.76829,-0.5075922039999999,4.87805,8.868153594999999,-0.79268,9.597446052287621,5.248863011072017
1.144,-3.6487602655,-2.2561,-0.5363256885,4.63415,8.916010046999999,-0.91463,9.648644043462353,5.234680646362298
1.15,-3.67749375,-3.23171,-0.5171046545,3.65854,8.839420110499999,-0.67073,9.587841539935171,4.9273464652488155
1.155,-3.67749375,-3.23171,-0.5171046545,3.65854,8.839420110499999,-0.67073,9.587841539935171,4.9273464652488155
1.16,-3.6871042669999996,-3.71951,-0.4931764285,3.47561,8.896887079499999,-1.03659,9.643265036839527,5.195107153880466
1.165,-3.6391497484999995,-4.14634,-0.46924820249999993,3.23171,8.8872765625,-1.03659,9.614951350158716,5.35822766852996
1.17,-3.6583707824999996,-4.39024,-0.4931764285,3.10976,8.8872765625,-1.15854,9.623439326469487,5.503365283787731
1.175,-3.701421976,-4.57317,-0.5602539145,2.86585,8.896887079499999,-1.34146,9.652409481497475,5.561159501668695
1.18,-3.7205449434999998,-4.81707,-0.5793768819999999,2.37805,8.882471304,-1.40244,9.647612591433328,5.552127803013904
1.185,-3.7205449434999998,-4.93902,-0.588987399,2.2561,8.9208153055,-1.58537,9.683506934351174,5.6566159324546685
1.19,-3.7349607189999996,-5.06098,-0.5698644315,1.89024,8.954354048499999,-1.64634,9.718803088274303,5.647739478198335
1.195,-3.7301554605,-4.93902,-0.541130947,1.70732,8.916010046999999,-1.70732,9.67998541421959,5.497617822766512
1.2,-3.7062272344999996,-4.93902,-0.5698644315,1.46341,8.916010046999999,-1.76829,9.672440278556557,5.446314066650949
1.205,-3.701421976,-4.69512,-0.5698644315,1.64634,8.9686717575,-1.76829,9.719173998261512,5.28028756168639
1.21,-3.663176041,-4.63415,-0.5841821405,1.64634,8.987794724999999,-1.82927,9.72319811067189,5.247095420420711
1.215,-3.7158377515,-4.7561,-0.6081103664999999,1.28049,8.973477015999999,-1.70732,9.731420151755733,5.212972609989429
1.22,-3.6871042669999996,-4.69512,-0.6033051079999999,1.46341,8.9351330145,-1.64634,9.684798238263735,5.186150406428645
1.225,-3.7062272344999996,-4.5122,-0.612915625,1.58537,8.973477015999999,-1.52439,9.728056107660919,5.019672474275588
1.229,-3.7158377515,-4.57317,-0.636843851,1.40244,8.983087532999999,-1.28049,9.742118964145792,4.951805372043615
1.2349999999999999,-3.7540836864999996,-4.32927,-0.6177208835,1.52439,8.963866499,-1.09756,9.73784504020535,4.719214082726063
1.24,-3.7876224295,-4.02439,-0.670382594,1.70732,8.930327755999999,-1.03659,9.723489616406942,4.492791479982128
1.2449999999999999,-3.768499462,-3.90244,-0.7087265955,1.40244,8.939938273,-0.79268,9.727609053992328,4.2218736941789246
1.25,-3.7876224295,-3.53659,-0.6320385924999999,1.28049,8.9686717575,-0.54878,9.756158544459955,3.801089706465765
1.255,-3.782817171,-3.35366,-0.6895055615,1.28049,8.930327755999999,-0.42683,9.722956211879998,3.615089747793269
1.26,-3.7636942035,-3.23171,-0.69431082,1.03659,8.954354048499999,-0.18293,9.737962723183783,3.398813283647691
1.265,-3.7349607189999996,-3.10976,-0.627233334,0.91463,8.973477015999999,-0.18293,9.739950871766961,3.246631897736483
1.269,-3.7540836864999996,-2.68293,-0.6177208835,0.73171,8.954354048499999,-0.18293,9.729089363401169,2.7869295459160783
1.275,-3.7158377515,-2.43902,-0.6081103664999999,0.67073,8.9351330145,-0.18293,9.696073968371177,2.536170474987831
1.28,-3.7205449434999998,-2.31707,-0.6225261419999999,0.67073,8.939938273,-0.18293,9.703220589017185,2.419122878793056
1.285,-3.663176041,-2.2561,-0.612915625,0.79268,8.94954879,-0.30488,9.689630943194691,2.4106597866144446
1.29,-3.6726884914999998,-2.2561,-0.6225261419999999,0.79268,8.8729588535,-0.54878,9.623179223571283,2.4534645464730076
1.295,-3.6871042669999996,-2.31707,-0.6033051079999999,0.79268,8.858543078,-0.73171,9.614182252997402,2.555886243830112
1.3,-3.6966167175,-2.43902,-0.6225261419999999,0.67073,8.8729588535,-0.91463,9.632336828074376,2.6898411347512705
1.305,-3.67749375,-2.5,-0.5745716235,0.60976,8.8776660455,-1.34146,9.626372486416889,2.9019514450107535
1.31,-3.667883233,-2.5,-0.646454368,0.67073,8.9112047885,-1.58537,9.658200735303348,3.0353379992679566
1.315,-3.7301554605,-2.2561,-0.636843851,0.91463,8.9208153055,-1.76829,9.69023093454937,3.008884306682462
1.32,-3.653565524,-2.13415,-0.5937926575,0.97561,8.939938273,-1.89024,9.675930295496785,3.0132073198172074
1.325,-3.6822990085,-1.95122,-0.6512596264999999,1.15854,8.954354048499999,-2.0122,9.703809639260104,3.032890248591267
1.33,-3.6918114589999997,-1.76829,-0.6081103664999999,1.28049,8.944743531499999,-2.07317,9.695757160271679,3.010737121221313
1.335,-3.67749375,-1.64634,-0.6416491095,1.70732,8.896887079499999,-2.13415,9.648330092113621,3.190607026962111
1.34,-3.7349607189999996,-1.52439,-0.6559668185,2.0122,8.94954879,-2.07317,9.719806972570828,3.266611020767548
1.345,-3.7110324929999994,-1.40244,-0.636843851,2.13415,8.9351330145,-2.2561,9.696078291838724,3.407553577876656
1.35,-3.6918114589999997,-1.21951,-0.5841821405,2.37805,8.9112047885,-2.2561,9.663348871104064,3.4974724663104926
1.354,-3.7110324929999994,-1.21951,-0.6559668185,2.43902,8.916010046999999,-2.07317,9.679736039235767,3.4255009924681095
1.3599999999999999,-3.7110324929999994,-1.28049,-0.6751878524999999,2.68293,8.954354048499999,-2.13415,9.71638292916421,3.6595579306112915
1.365,-3.6966167175,-1.15854,-0.6895055615,2.9878,8.9351330145,-1.95122,9.694173253158196,3.751855975380718
1.3699999999999999,-3.7540836864999996,-1.46341,-0.646454368,3.10976,8.8872765625,-1.89024,9.669267411418176,3.922395102905876
1.375,-3.7588889449999994,-1.34146,-0.6416491095,3.35366,8.882471304,-1.82927,9.666398302726243,4.048799706098093
1.38,-3.7636942035,-1.15854,-0.612915625,3.53659,8.90639953,-1.82927,9.688395750010052,4.146795448608479
1.385,-3.7062272344999996,-1.28049,-0.636843851,3.41463,8.90639953,-1.76829,9.66776308110052,4.052925141314604
1.39,-3.7349607189999996,-1.21951,-0.6416491095,3.71951,8.925620563999999,-1.95122,9.696821520719807,4.37369623643435
1.394,-3.6871042669999996,-1.15854,-0.6081103664999999,3.90244,8.9208153055,-2.13415,9.671891325300209,4.5962864475247835
1.4,-3.6822990085,-1.28049,-0.612915625,4.02439,8.90639953,-2.43902,9.657067056790765,4.8769035332473
1.405,-3.6918114589999997,-1.34146,-0.612915625,4.20732,8.882471304,-2.80488,9.638642740477328,5.231482421685081
1.41,-3.7301554605,-1.58537,-0.612915625,4.39024,8.8776660455,-3.04878,9.648972988784386,5.575182937168968
1.415,-3.7253502019999996,-1.76829,-0.5745716235,4.45122,8.892081821,-3.59756,9.658027013289596,5.990212597738081
1.42,-3.67749375,-1.70732,-0.555448656,4.45122,8.9112047885,-3.84146,9.656192535017443,6.1225089630314145
1.425,-3.6822990085,-1.76829,-0.5985979159999999,4.81707,8.8729588535,-4.02439,9.625333462740066,6.521252010243126
1.43,-3.667883233,-1.34146,-0.6033051079999999,5.12195,8.9112047885,-4.39024,9.65540860071943,6.8780879604509275
1.435,-3.6822990085,-1.46341,-0.627233334,5.67073,8.916010046999999,-4.26829,9.666849683401814,7.246864638248737
1.44,-3.6966167175,-1.58537,-0.588987399,6.58537,8.896887079499999,-4.26829,9.652278540202582,8.006172343754537
1.445,-3.701421976,-1.03659,-0.6320385924999999,7.19512,8.9112047885,-4.14634,9.670034550579974,8.36877565944386
1.45,-3.6391497484999995,-1.21951,-0.646454368,8.04878,8.94954879,-4.26829,9.68275465384228,9.191755199775503
1.455,-3.620026781,-1.34146,-0.6320385924999999,9.20732,8.90639953,-4.26829,9.634729849121397,10.236823532624756
1.46,-3.6726884914999998,-1.34146,-0.6416491095,10.30488,8.896887079499999,-4.20732,9.646499574492951,11.211226887740699
1.465,-3.6104162639999995,-1.34146,-0.6416491095,11.34146,8.9015942715,-4.20732,9.627315293137515,12.170857465503406
1.47,-3.643955007,-1.34146,-0.6655773355,12.5,8.959061240499999,-4.14634,9.69464695559364,13.2378869283281
1.475,-3.6822990085,-1.15854,-0.636843851,13.53659,9.0261387265,-4.14634,9.769138978875242,14.20470412065313
1.479,-3.6726884914999998,-1.34146,-0.6847003029999998,14.69512,8.959061240499999,-4.39024,9.70681377031383,15.39546277328486
1.4849999999999999,-3.5912932964999995,-0.97561,-0.7134337874999999,16.28049,8.944743531499999,-4.45122,9.665133840508547,16.906197946333172
1.49,-3.4859698755,-0.67073,-0.660772077,17.9878,8.963866499,-4.63415,9.640513903445754,18.58725837221294
1.4949999999999999,-3.4715540999999996,-0.73171,-0.6847003029999998,20.2439,8.987794724999999,-4.5122,9.659242019583777,20.753574043381057
1.5,-3.596098555,-0.18293,-0.9384964049999999,22.7439,9.045261693999999,-4.32927,9.779031620381168,23.152991800797583
1.505,-3.505092843,0.97561,-0.8475887595,24.81707,9.007015759,-4.5122,9.702083045725537,25.2427955483738
1.51,-3.3710359375,1.52439,-0.6991160785,27.80488,8.925620563999999,-4.57317,9.56657457168622,28.21965627954033
1.515,-3.6009038135,1.95122,-0.73746008,31.40244,8.94954879,-4.32927,9.674956288700374,31.759456484248904
1.519,-3.605709072,2.86585,-0.7134337874999999,33.65854,8.954354048499999,-4.39024,9.679389552391102,34.064418656593865
1.525,-3.643955007,3.65854,-0.73746008,35.73171,8.983087532999999,-4.26829,9.722042845419576,36.17123600293194
1.53,-3.6009038135,4.26829,-0.7996342409999999,38.59756,9.021333468,-3.78049,9.74630087439924,39.016432975322076
1.535,-3.6871042669999996,5.79268,-1.0007686325,41.82927,9.064482728,-3.23171,9.836723176837694,42.35194115786666
1.54,-3.67749375,7.13415,-0.6991160785,44.7561,8.8729588535,-3.17073,9.630271148228918,45.431906323259206
1.545,-3.7588889449999994,8.17073,-0.761388306,47.86586,8.9015942715,-2.80488,9.692643541767044,48.63916872323066
1.55,-3.8020382049999997,8.96342,-0.785316532,50.73171,8.944743531499999,-2.5,9.750930899766606,51.578089317272116
1.555,-3.7972329465,9.39024,-0.751777789,53.47561,8.925620563999999,-2.37805,9.728866858299504,54.34586087212347
1.56,-3.806745397,9.93902,-0.7996342409999999,56.64634,8.959061240499999,-1.89024,9.767062186143267,57.54272292143986
1.565,-3.9025563675,10.12195,-0.8619064684999999,60.2439,8.916010046999999,-1.21951,9.770776024459973,61.10047924241347
1.57,-3.9696338534999995,10.36585,-0.7805112734999999,63.47561,8.882471304,-0.73171,9.760404051334007,64.32059787205573
1.575,-3.9935620794999998,11.15854,-0.69431082,66.46342,8.8872765625,-0.67073,9.768023868518712,67.39695165035954
1.58,-4.0174903055,12.19512,-0.6512596264999999,69.69512,8.939938273,-0.4878,9.822772713493151,70.75569696122568
1.585,-4.0318080145,12.68293,-0.6559668185,73.47561,8.9015942715,-0.4878,9.794087446370952,74.5637976976562
1.59,-4.0318080145,13.29268,-0.6320385924999999,77.80488,8.9112047885,-0.60976,9.801250911530687,78.93457101077068
1.595,-4.084469725,13.59756,-0.6655773355,82.19512,9.040554501999999,-0.60976,9.942711492726986,83.31448371697205
1.6,-4.0557362405,13.71951,-0.6559668185,86.52439,8.954354048499999,-0.67073,9.851890445258027,87.60790431373815
1.604,-4.084469725,14.5122,-0.636843851,91.7683,9.0357492435,-0.79268,9.936459501070233,92.91207227972262
1.6099999999999999,-4.141936694,15.18293,-0.5985979159999999,96.95123,9.0596774695,-1.03659,9.979564864938206,98.13835580814414
1.615,-4.16586492,15.36585,-0.5123974625,101.7683,8.9112047885,-1.46341,9.850205707184413,102.93220001506137
1.6199999999999999,-4.185085954,16.09756,-0.5315204299999999,107.13415,8.8729588535,-1.95122,9.824808253893789,108.35434829144837
1.625,-4.228137147499999,16.76829,-0.5267151715,112.80488,8.8776660455,-2.80488,9.847209098286749,114.07884928045559
1.63,-4.3669993115,17.31707,-0.5698644315,118.96342,8.8298095935,-3.59756,9.867166052843892,120.27102165291065
1.635,-4.4628102819999995,17.56098,-0.7039213369999999,125.79269,8.954354048499999,-4.26829,10.02958809162655,127.08425227194988
1.64,-4.3526816025,17.56098,-0.7996342409999999,133.10976,9.050066952499998,-4.63415,10.074173112313199,134.34311136802103
1.644,-4.477127991,16.58537,-0.660772077,141.5244,9.1650008905,-4.93902,10.221474262962479,142.5784843935343
1.65,-4.290409374999999,14.26829,-0.555448656,150.48781,9.011821017499999,-5.42683,9.996452063907215,151.2600923640109
1.655,-4.2520653735,12.56098,-0.36392478149999996,160.30489,8.8776660455,-6.21951,9.850150029442755,160.91649474529515
1.66,-4.300019892,11.03659,-0.277724328,170.79269,8.8298095935,-8.47561,9.825112687975816,171.35864507265543
1.665,-4.4723227324999995,9.5122,-0.08620045349999998,181.58537,8.781953141499999,-12.5,9.855546769272701,182.26348659804822
1.67,-4.453199765,7.37805,0.0383440015,192.5,8.8298095935,-16.89024,9.889286924086676,193.3803656761981
1.675,-4.8075140295,3.41463,0.009610516999999999,204.08537,8.5616957825,-21.34146,9.819109846516364,205.22659637826038
1.68,-5.066115389999999,-0.12195,-0.19152387449999997,216.82927,8.499423555,-25.36585,9.896585638824492,218.30797866032725
1.685,-5.22890578,-5.30488,-0.06707748599999999,230.54878,8.3892948755,-29.63415,9.885657466923282,232.50605273309617
1.69,-4.975109678,-12.86585,0.1436674225,245.24391,8.307899680499998,-33.90244,9.68470720970278,247.91022755478284
1.695,-5.2001722955,-18.29268,0.22025735899999999,259.39026,8.3461456155,-38.35366,9.836079088854932,262.84773607517644
1.7,-5.9950993445,-20.60976,0.6655773355,271.46341,8.2743609375,-42.56098,10.239592680569938,275.5514147934032
1.705,-6.880934038999999,-19.20732,0.809244758,281.76831,8.317412131,-45.54878,10.825039255555856,286.07165714437156
1.71,-7.484239146999999,-17.5,0.5745716235,291.03659,8.2839714545,-48.59756,11.17891547597483,295.58462334292983
1.715,-8.307899680499998,-15.36585,0.2393803265,300.73172,8.236016936,-50.67073,11.70087496779818,305.357494814052
1.72,-9.346914248,-11.76829,0.0048052584999999995,308.78049,8.260043228499999,-51.7683,12.473698055775735,313.3110922694155
1.725,-9.346914248,-11.76829,0.0048052584999999995,308.78049,8.260043228499999,-51.7683,12.473698055775735,313.3110922694155
1.729,-11.137804671,-5.2439,0.07178467799999999,314.69513,9.188929116499999,-49.57317,14.439261208157653,318.61892994104386
1.7349999999999999,-15.591004435999999,20.42683,0.07178467799999999,303.96341,12.387564146999999,-39.20732,19.913219675868767,307.16156000427435
1.74,-16.017201444999998,32.80488,-0.42619700899999996,290.12195,12.387564146999999,-33.65854,20.253003024643785,293.90441190725346
1.7449999999999999,-14.235921538999998,38.17073,-0.6177208835,278.17075,11.2718615765,-35.0,18.168596658912683,282.95047408388524
1.75,-13.0052850305,41.03659,0.10532342099999999,270.97562,10.783490406499999,-37.37805,16.894738740052656,276.60243486819667
1.755,-13.0052850305,41.03659,0.10532342099999999,270.97562,10.783490406499999,-37.37805,16.894738740052656,276.60243486819667
1.76,-11.942244170499999,45.0,0.5027869455,266.40244,10.534499562999999,-37.43903,15.93253500178969,272.7580264727227
1.765,-10.783490406499999,53.53659,0.9336911465,263.59756,10.002979132999998,-35.4878,14.73821685413006,271.3101989524568
1.769,-11.080337702,61.52439,0.46444294399999997,262.19513,11.037286508500001,-34.7561,15.646446379587609,271.55022233060134
1.775,-11.817797781999998,66.21951,2.4947136935,250.18294,12.416297631499999,-36.52439,17.321904852029785,261.362885728934
1.78,-12.9478180615,69.32927,0.612915625,240.06097,13.350086844499998,-39.14634,18.607699397635557,252.91945937683286
1.785,-13.0723625165,67.37805,-0.2250626175,226.46342,12.478569858999998,-48.41463,18.07351710848039,241.18345427896958
1.79,-13.0723625165,67.37805,-0.2250626175,226.46342,12.478569858999998,-48.41463,18.07351710848039,241.18345427896958
1.795,-12.794638188499999,60.54878,0.5027869455,217.37805,9.7108390295,-57.92683,16.070343983376592,232.96971694866227
1.8,-11.851336524999999,56.28049,1.120507829,214.93903,8.456274294999998,-66.09756,14.601996102448702,231.80847182520012
1.805,-10.740341146499999,52.86586,1.5801455144999998,213.59756,8.7627321075,-72.92683,13.951245886228469,231.81250899237963
1.81,-9.830578226,49.39024,1.9392650375,210.18294,9.9885633575,-78.96342,14.148230104503067,229.8945100962561
1.815,-7.1970023685,42.62195,1.618489516,194.81708,11.3389390625,-89.08537,13.527301669907597,218.41824197984425
1.82,-7.1970023685,42.62195,1.618489516,194.81708,11.3389390625,-89.08537,13.527301669907597,218.41824197984425
1.825,-6.833077586999999,36.82927,1.6807617434999997,187.07318,11.2671543845,-94.08537,13.284000800682469,212.61426728251845
1.83,-5.770036727,28.47561,2.1308869785,177.19513,10.419565624999999,-98.29269,12.099642596364214,204.62264627363487
1.835,-4.319142859499999,17.7439,2.6383811159999997,166.64635,9.677398353,-100.79269,10.920993033450864,195.56333580957502
1.84,-0.06227222749999999,15.67073,1.144436055,154.57318,11.836920749499999,-99.81708,11.892279198885527,184.6669683884254
1.845,-3.7253502019999996,13.90244,-0.138862164,133.41464,10.5775507565,-99.7561,11.215261781807232,167.16465981628176
1.85,-14.202382795999998,5.0,3.3231794855,110.12196,14.470594673499999,-101.15854,20.54627239140208,149.61582900606874
1.854,-13.32135336,15.06098,3.4236976479999996,63.29268,20.240533334,-90.42683,24.471602942424287,111.3993179691496
1.8599999999999999,-9.102728663,24.20732,1.838746875,8.96342,19.0626566025,-79.32927,21.20437539583189,83.42343986201779
1.865,-6.6080149695,29.26829,1.7142024200000001,-29.81707,16.1369406415,-70.0,17.521564001000723,81.52110440192159
1.8699999999999999,-4.3669993115,31.15854,2.542668212,-57.31707,13.7092063675,-61.03659,14.610892643834575,89.33961297848005
1.875,-1.848357392,27.19512,3.3471077114999996,-77.07317,10.625505274999998,-53.90244,11.292515992018634,97.9046532276015
1.88,0.12454445499999998,20.54878,3.366230679,-86.82927,7.819430443999999,-47.80488,8.514136055646873,101.22687903929321
1.885,1.1970977655,11.46342,3.1268503525,-88.65854,6.038150538,-43.17073,6.904310110839761,99.27466263735627
1.89,1.709495228,0.36585,2.9448389285,-86.34147,5.0134536794999995,-39.69512,6.060459392311435,95.02992076076777
1.894,1.7956956814999998,-11.89024,2.868248992,-81.64635,4.5154719925,-36.52439,5.64277082431306,90.23045683388841
1.9,1.4317708999999998,-22.62195,2.4852012429999997,-76.15854,4.3909275375,-32.56098,5.244658022013577,85.86089479672628
1.905,1.0439178924999999,-30.12195,1.9345578454999999,-71.95122,4.453199765,-27.68293,4.966212517690247,82.76868094077494
1.91,0.718239046,-33.96342,1.4556991259999998,-69.87805,4.673457124,-21.70732,4.947335521520903,80.67009056323973
1.915,0.3303860385,-34.63415,1.1396307964999999,-69.57317,5.090043615999999,-14.45122,5.226514832998113,79.04927633798933
1.92,-0.129251647,-32.62195,0.9768404065,-70.97561,5.631174562999999,-6.09756,5.716734218677788,78.35119063950593
1.925,-0.6751878524999999,-28.84146,0.8906399529999999,-74.39024,6.1914284775,2.56098,6.291494635938377,79.82666372052387
1.93,-1.0246968585,-24.26829,0.8763222439999999,-80.0,6.622332678499999,11.64634,6.758197572716999,84.40726944357162
1.935,-1.1970977655,-20.12195,0.9384964049999999,-86.46342,6.809149360999999,20.60976,6.976985995597936,91.13494432519559
1.94,-1.3503757049999998,-17.19512,1.1157025704999999,-93.41463,6.962329234,29.08537,7.1792990697620045,99.33742496102967
1.945,-1.5131660949999999,-15.79268,1.2881034774999998,-100.36585,7.091580881,36.64634,7.364740429341001,108.00771649840812
1.95,-1.7621569384999998,-16.03658,1.3838163815,-107.62196,7.2304430449999995,43.53659,7.569640115659417,117.19681241896514
1.955,-2.0541989755,-17.92683,1.4317708999999998,-114.57317,7.398038693499999,49.87805,7.810293070785195,126.2386723215208
1.96,-2.370267305,-20.97561,1.38862164,-121.70732,7.6375170865,55.18293,8.11653278209407,135.26937465605212
1.965,-2.7868537969999996,-24.39024,1.2784929605000002,-129.51219,7.88650793,59.93903,8.461566383705458,144.77906783507967
1.97,-3.1459733199999995,-28.17073,1.1587537639999999,-137.68294,8.097154772,64.32927,8.763776230453306,154.55884631592397
1.975,-3.5721703289999995,-31.76829,0.9097629205,-145.97562,8.322217389499999,68.04878,9.10205315898566,164.16072107357746
1.979,-3.9887568209999995,-34.39024,0.612915625,-154.69513,8.437151327499999,71.09756,9.352612953799497,173.6897662239434
1.9849999999999999,-4.3669993115,-36.34146,0.3207755215,-163.78049,8.513741264,73.53659,9.57378557479597,183.1730894219994
1.9899999999999998,-4.654334156499999,-37.19512,-0.028733484499999996,-172.5,8.394100134,74.87805,9.59815446391195,191.69363401953885
1.995,-4.7214116425,-36.46342,-0.5267151715,-180.7317,8.1833552255,75.48781,9.462370713332943,199.22835601786835
2.0,-4.7453398684999994,-34.14634,-1.0486250844999998,-187.92683,7.8817026715,74.87805,9.259541135355922,205.15649719432966
2.005,-4.673457124,-29.81707,-1.5610225469999999,-193.53659,7.6518347955,73.29269,9.101020196644617,209.08679475196203
2.01,-4.673457124,-23.71951,-2.092542977,-197.62196,7.445993211999999,70.85366,9.036744574989848,211.27540170184815
2.015,-4.7261188345,-16.52439,-2.4707854675,-200.48781,7.3741104674999995,67.68293,9.100466210646458,212.24843094085077
2.019,-4.798001578999999,-8.41463,-2.6719198589999995,-202.43903,7.307131048,63.84146,9.140795317566772,212.43375174465427
2.025,-4.9224479675,-0.60976,-2.7916590555,-203.78049,7.3549875,59.39024,9.28006979499919,212.2594179751638
2.03,-5.1762440695,6.21951,-2.7868537969999996,-204.69513,7.517777889999999,54.5122,9.543429213666336,211.92064198467548
2.035,-5.4396506884999996,12.07317,-2.7197763109999995,-205.79269,7.747645765999999,49.14634,9.84951763845281,211.92393783308341
2.04,-5.7652314685,16.40244,-2.604842373,-207.01221,8.001441867999999,43.59756,10.200302428876423,212.1882239074339
2.045,-6.129156249999999,19.08537,-2.3893902725,-208.65854,8.21208871,37.92683,10.522078843657328,212.93445493112992
2.05,-6.430808804,20.36585,-2.150009946,-210.36586,8.3748791,32.31707,10.775734062286412,213.80588371966522
2.055,-6.627137937,20.97561,-1.905824361,-212.19513,8.4850077795,27.19512,10.933731327830458,214.95656296657566
2.06,-6.761194842499999,20.79268,-1.7429359045,-213.78049,8.5760134915,22.62195,11.058914443643818,215.97728137011308
2.065,-6.880934038999999,20.67073,-1.618489516,-214.93903,8.6574086865,18.65854,11.17664917260788,216.73533816848
2.07,-6.938401008,20.97561,-1.422160383,-215.67073,8.743609139999998,15.48781,11.252317516666583,217.24113848947002
2.075,-6.991062718499999,21.64634,-1.2545647344999997,-216.28049,8.834614852,13.59756,11.335753622509207,217.78592247431718
2.08,-7.02940672,22.62195,-1.0821638275,-216.40245,8.939938273,12.56098,11.4239281208252,217.94391757139127
2.085,-7.110801915,24.32927,-0.842783501,-216.28049,9.045261693999999,12.5,11.536487637789467,218.00324248362222
2.09,-7.182586592999999,26.09756,-0.6033051079999999,-215.67073,9.188929116499999,13.47561,11.67861059918275,217.66152274014487
2.095,-7.297520531,27.92683,-0.3543142645,-214.69513,9.423602251,15.36585,11.924077485635816,217.048418620796
2.1,-7.484239146999999,29.87805,-0.153179873,-213.29269,9.686910803499998,18.23171,12.242284941870311,216.1454712196457
2.104,-7.838651478,31.70732,0.009610516999999999,-211.64635,10.036517875999998,21.89024,12.734843557376593,215.1248805163236
2.11,-8.293483905,33.23171,0.1436674225,-210.42683,10.405247915999999,25.54878,13.306829066468246,214.5612674572496
2.1149999999999998,-8.743609139999998,34.69512,0.3782424905,-210.0,10.778685148000001,29.26829,13.884301267778186,214.84967803405826
2.12,-9.2128573425,35.36586,0.6416491095,-210.0,11.089948218999998,32.80488,14.431749910980287,215.46903305429763
2.125,-9.734865322,34.93903,0.9145681789999999,-210.42683,11.406016548499998,36.40244,15.023356858444565,216.39159928043279
2.13,-10.405247915999999,33.59756,1.192292507,-211.15854,11.7219868115,40.0,15.719278622909215,217.52407924844826
2.135,-11.003747765499998,31.89025,1.4412833504999998,-212.37805,12.004516398,43.53659,16.34833864749032,219.12749447682987
2.14,-11.52085242,30.06098,1.618489516,-214.51221,12.162501529499998,47.56098,16.830804860490527,221.76834214153493
2.144,-11.990198689,28.29268,1.8435521334999998,-216.89024,12.196040272499998,52.19512,17.201946035233092,224.86925645951337
2.15,-12.3541234705,26.28049,2.0063425235,-218.78049,12.0667886255,57.31707,17.385544707556893,227.6857779323625
2.155,-12.751488928499999,24.57317,2.241015658,-220.42683,11.8129925235,63.10976,17.526249268834622,230.5963353458927
2.16,-13.187296454499998,22.98781,2.4564677584999997,-221.21951,11.669325101,69.81708,17.77954358076289,233.11142330002323
2.165,-13.661349915499999,21.03659,2.6671146004999997,-221.58537,11.420334257499999,77.2561,18.004722057253762,235.60797801448703
2.17,-14.202382795999998,19.20732,2.7054586019999998,-221.46342,11.161732896999998,85.2439,18.26503393359083,238.0787475330144
2.175,-14.700364483,17.37805,2.5762069549999995,-220.36586,10.86969086,93.29269,18.46314538750117,239.93047927009647
2.18,-15.294157140499998,15.97561,2.2601386254999998,-218.41464,10.477032593999999,101.40244,18.675858245888524,241.335098813155
2.185,-15.739477117,15.48781,1.9010191024999998,-215.73172,10.0221021005,109.45123,18.756000214797478,242.40383458449537
2.19,-16.122524866,15.85366,1.331154671,-212.2561,9.495386929,117.07317,18.7582023057738,242.9199820032401
2.195,-16.4721319385,16.64634,0.8763222439999999,-207.62196,9.073995178499999,124.14635,18.82648293691953,242.47947362191238
2.2,-16.941380141,16.95122,0.4310022675,-202.37805,8.844225369,130.24391,19.11586896832374,241.2627096618518
2.205,-17.640496219499997,15.97561,0.153179873,-197.80489,8.623869943499999,134.57318,19.636234459439738,239.77475971856714
2.21,-18.248606586,13.47561,0.05746696899999999,-194.45122,8.3318279065,137.19513,20.060765215879997,238.35975482467128
2.215,-18.6603878195,8.90244,-0.1340569055,-192.13416,7.7715739919999995,138.53659,20.214485082266798,237.03834214254726
2.22,-18.794444724999998,2.37805,-0.43570945949999995,-190.30489,6.98625746,138.10976,20.05564231211715,235.1508283782394
2.225,-18.799249983499998,-4.93902,-0.9384964049999999,-188.29269,6.0908122485,135.97562,19.783593437260084,232.3099228625004
2.229,-18.669998336499997,-12.13415,-1.5562172884999999,-185.54878,5.075725907,132.37805,19.410142802589835,228.25322665301664
2.235,-18.1815291,-17.68293,-2.1260817199999997,-181.64635,3.9648285949999997,127.19512,18.729871587440062,222.45602044791192
2.2399999999999998,-17.506439314,-21.21951,-2.6096476315,-175.85367,2.715069119,120.48781,17.90690588952502,214.22439920724506
2.245,-16.606188844,-23.04878,-3.0693833834999995,-167.98781,1.5131660949999999,112.7439,16.95512588890314,203.62302805747316
2.25,-15.571881468499999,-22.86585,-3.7301554605,-157.56097,0.41178123349999995,103.65854,16.0177125711749,189.9826288861563
2.255,-15.212761945499999,-19.45122,-4.7214116425,-144.39024,-0.6177208835,93.96342,15.940559369052878,173.36670864050689
2.26,-15.519219757999998,-12.56098,-5.521045883499999,-130.24391,-1.192292507,83.53659,16.515135208863963,155.24051075501072
2.265,-16.165674126,-3.35366,-6.0286380875,-116.82927,-1.5179713535000001,71.34147,17.319865304560775,136.9303863497412
2.269,-17.065826529499997,6.95122,-6.3638293845,-105.48781,-1.8770908764999998,58.04878,18.310222001075005,120.60538287146598
2.275,-17.764942608,17.7439,-6.531425032999999,-96.52439,-2.1835486889999998,44.02439,19.053099057750853,107.56370562115363
2.28,-18.1624061325,27.80488,-6.588892002,-89.08537,-2.7102638605,30.0,19.509793041686155,98.02711104511496
2.285,-18.124062131,36.7683,-6.478665255999999,-81.70732,-3.4045746804999997,16.21951,19.545993461135495,91.05529381157638
2.29,-17.702768447,43.23171,-6.196233735999999,-72.92683,-4.228137147499999,3.59756,19.226504282820443,84.8542616568349
2.295,-15.265423656,45.06098,-4.280798858,-60.36586,-6.818661811499999,-8.41463,17.25840511633178,75.79798790295756
2.3,-20.0250812335,12.0122,-1.4844326104999999,-6.64634,-13.632616430999999,-27.92683,24.270468667460065,31.11871813048378
2.305,-18.215067843,-38.35366,-1.4077446075,49.57317,-10.726023437499999,-43.65854,21.185325586047465,76.38436053392148
2.31,-8.2504327115,-77.7439,-3.1747068045,60.73171,-13.9055355005,-60.54878,16.477630921257873,115.7523621626034
2.315,-13.7427451105,-93.47561,-5.793964953,101.58537,-15.404285819999998,-77.13415,21.441200868258683,158.13587246141054
2.32,-20.6379968585,-89.7561,-9.524120413499999,146.09756,-10.314242204,-82.5,24.960356091712274,190.2811197285837
2.325,-7.422064985999999,-77.0122,-9.1553903735,165.97562,-0.842783501,-77.0122,11.816027487152416,198.51867502092693
2.33,4.730924093,-48.84146,-3.5434368444999995,175.12195,4.4723227324999995,-62.62195,7.4121021355836865,192.28805009291816
2.335,-3.629637298,-20.54878,0.6177208835,200.60976,14.1975775375,-44.57317,14.667210162067951,206.5267431849805
2.34,-5.559291818499999,-14.69512,1.6232947745,192.5,22.764078578499998,-33.84146,23.48923338417588,196.0036759011065
2.345,-4.381415087,-25.54878,2.255333367,160.60976,23.8414371475,-32.5,24.34537845298544,165.84476225297558
2.35,-3.342302453,-45.06098,4.4340767974999995,128.65854,17.4010178265,-38.59756,18.265471363521623,141.68021552582985
2.354,-2.437344791,-53.47561,4.673457124,122.07317,6.430808804,-51.89024,8.31487540457974,143.01781954000907
2.36,-2.140399429,-55.73171,1.316836962,147.2561,2.011147782,-56.89024,3.218708545549975,167.41231105863065
2.3649999999999998,-3.6104162639999995,-58.23171,-2.0781272014999996,182.80489,5.4635789145,-49.20732,6.870546762808542,198.0654442325026
2.37,-14.226311021999999,-41.52439,-4.5394002185,202.5,15.318085366499998,-29.7561,21.392471080587626,208.84432109129062
2.375,-21.9309055945,-57.37805,1.4269656414999998,172.56097,29.659330326499997,-18.10976,36.91445145946687,182.7498081979869
2.38,-25.689794539499996,-125.18293,9.7635988065,114.39024,34.2131463205,-30.48781,43.884311391247266,172.29451392670225
2.385,-31.301748068499997,-73.65854,-7.216125336,41.03659,19.881413811,-35.85366,37.77753978401619,91.62459914867459
2.39,-12.655776024499998,-3.04878,-7.900825639,-1.76829,13.6660571075,-13.41463,20.232469681816898,13.86990292141225
2.394,-12.655776024499998,-3.04878,-7.900825639,-1.76829,13.6660571075,-13.41463,20.232469681816898,13.86990292141225
2.4,1.608878999,-2.7439,-3.5098981014999997,9.81707,7.4747266965,-1.58537,8.413050309115377,10.315873624264693
2.405,-2.4707854675,-7.92683,-0.17240090699999996,20.42683,11.2718615765,-2.31707,11.540769744645315,22.033130306034593
2.41,-4.855468548,-9.5122,1.929752587,18.17073,11.042091766999999,-1.89024,12.21586306645992,20.596853760477593
2.415,-4.357486861,-6.64634,0.9529121805,12.07317,9.2224678595,-0.91463,10.244493486114548,13.812017132967943
2.42,-4.697385349999999,-4.63415,-0.6416491095,7.56098,9.0357492435,-0.79268,10.204014263882993,8.903488437983171
2.425,-4.697385349999999,-4.63415,-0.6416491095,7.56098,9.0357492435,-0.79268,10.204014263882993,8.903488437983171
2.43,-4.3766098285,-4.93902,-1.4412833504999998,4.02439,9.260811860999999,-0.79268,10.343821712123114,6.420122663540004
2.435,-3.701421976,-6.40244,-0.69431082,1.52439,9.351719506499999,-1.09756,10.081530136216298,6.672304008309274
2.44,-3.744571236,-6.21951,0.09100571199999999,0.06098,8.954354048499999,-0.60976,9.706212042139999,6.249626425483366
2.445,-3.7349607189999996,-6.40244,-0.2393803265,-0.79268,8.8872765625,-1.34146,9.64317993255078,6.589316692009878
2.45,-3.596098555,-7.37805,-0.2346731345,-1.70732,8.983087532999999,-2.19512,9.678990542555,7.884739386897959
2.455,-3.596098555,-7.37805,-0.2346731345,-1.70732,8.983087532999999,-2.19512,9.678990542555,7.884739386897959
2.46,-3.5864880379999997,-7.92683,-0.0048052584999999995,-1.64634,9.169806149,-2.80488,9.846230971669543,8.5681048697422
2.465,-3.5912932964999995,-7.5,-0.0765899365,-1.40244,9.174611407499999,-2.92683,9.85275332272599,8.172097148376297
2.47,-3.6871042669999996,-6.64634,-0.6559668185,-1.21951,9.2560066025,-2.80488,9.984923062709408,7.316309988655484
2.475,-3.8259664309999994,-5.97561,-1.005573891,-1.21951,9.342207056,-2.5,10.145246702696586,6.591291187028532
2.479,-3.864212366,-5.85366,-0.8619064684999999,-1.46341,9.227273118,-2.31707,10.04079624154155,6.463413773587453
2.485,-3.806745397,-4.63415,-0.842783501,-2.2561,9.2224678595,-1.46341,10.012767248201119,5.3578822552012095
2.4899999999999998,-3.806745397,-4.63415,-0.842783501,-2.2561,9.2224678595,-1.46341,10.012767248201119,5.3578822552012095
2.495,-3.7253502019999996,-4.26829,-0.9336911465,-2.43902,9.265519053,-0.85366,10.029947986211091,4.989574478860899
2.5,-3.6966167175,-3.65854,-0.90025047,-2.68293,9.2703243115,-0.12195,10.020695530013056,4.538490951737152
2.505,-3.67749375,-2.9878,-0.8475887595,-2.92683,9.246396085499999,0.73171,9.986901799680895,4.246019572847021
2.51,-3.6391497484999995,-2.43902,-0.7805112734999999,-3.04878,9.160195631999999,1.40244,9.887456333991066,4.148579998312676
2.515,-3.6248320394999998,-2.0122,-0.7901217905,-3.17073,9.0932162125,1.82927,9.820910387824618,4.177164864570226
2.519,-3.5769755874999998,-1.52439,-0.7901217905,-3.47561,9.136267406,2.31707,9.843293600788908,4.446621541024151
2.525,-3.5243138769999995,-1.40244,-0.6895055615,-3.59756,9.169806149,2.56098,9.847921152872438,4.63334592574308
2.53,-3.4859698755,-1.09756,-0.6512596264999999,-3.59756,9.088410954,2.68293,9.755784886045285,4.620085420433263
2.535,-3.4715540999999996,-0.73171,-0.6751878524999999,-3.17073,9.045261693999999,2.7439,9.712071129184244,4.256514473956361
2.54,-3.433308165,-0.54878,-0.7039213369999999,-2.86585,9.021333468,2.80488,9.678200646060013,4.047419860269009
2.545,-3.4236976479999996,-0.67073,-0.6847003029999998,-2.19512,9.007015759,2.5,9.660064853442929,3.3938813396021965
2.55,-3.4428206154999996,-1.34146,-0.565059173,-1.58537,8.997405242,2.07317,9.650160970070514,2.9344414830423866
2.555,-3.4045746804999997,-1.64634,-0.4310022675,-0.85366,8.954354048499999,1.21951,9.589439406742196,2.2195439692198033
2.56,-3.35191297,-1.64634,-0.46444294399999997,-0.2439,9.011821017499999,0.67073,9.62621139691729,1.7943804887760009
2.565,-3.4236976479999996,-1.64634,-0.5745716235,0.4878,9.054872211,0.30488,9.69755375819037,1.7439426739431545
2.57,-3.399769422,-1.52439,-0.6847003029999998,0.91463,9.050066952499998,-0.18293,9.691798515880688,1.7871139566071326
2.575,-3.3949641634999996,-1.21951,-0.6033051079999999,1.21951,9.021333468,-0.2439,9.657857747225574,1.7418083965235673
2.58,-3.3806464544999995,-1.09756,-0.5363256885,1.58537,9.050066952499998,-0.36585,9.675749456202398,1.962621260712316
2.585,-3.433308165,-0.85366,-0.6512596264999999,2.13415,9.064482728,-0.54878,9.714761509330783,2.363152789495423
2.59,-3.4763593585,-0.4878,-0.7278495629999999,2.68293,9.064482728,-0.54878,9.735485940722228,2.781586186566938
2.595,-3.505092843,-0.36585,-0.6416491095,2.9878,9.064482728,-0.67073,9.739724664690593,3.0839380336511306
2.6,-3.457236391,-0.12195,-0.6320385924999999,3.35366,9.064482728,-0.97561,9.721975281385692,3.494813595916097
2.604,-3.4524311324999997,0.36585,-0.7039213369999999,3.71951,9.11233918,-0.85366,9.769826574955268,3.833710507876149
2.61,-3.4285029064999994,0.30488,-0.6799931109999999,4.20732,9.078800437,-0.91463,9.728393504878275,4.3163690103720285
2.6149999999999998,-3.4620416494999997,0.4878,-0.627233334,4.69512,9.064482728,-1.15854,9.723373959915547,4.860485118380675
2.62,-3.5098981014999997,0.85366,-0.6799931109999999,5.18293,9.078800437,-1.09756,9.75737632198288,5.366203195379392
2.625,-3.5002875845,1.15854,-0.7278495629999999,5.60976,9.078800437,-1.21951,9.75737646785423,5.856520027226066
2.63,-3.529021069,1.28049,-0.6895055615,5.67073,9.0357492435,-1.15854,9.724925296175604,5.927819861011297
2.635,-3.466846908,1.58537,-0.6655773355,5.91463,9.0932162125,-1.21951,9.754414475524058,6.2436728544903755
2.64,-3.481164617,1.70732,-0.660772077,6.21951,9.0836056955,-1.21951,9.750231754154138,6.563874683645324
2.644,-3.51470336,1.82927,-0.6320385924999999,6.46341,9.045261693999999,-1.15854,9.724678483330356,6.816458940872453
2.65,-3.5769755874999998,2.13415,-0.670382594,6.70732,9.0357492435,-1.09756,9.741094988106827,7.123719236361018
2.655,-3.5912932964999995,2.07317,-0.6847003029999998,6.76829,8.997405242,-1.28049,9.711822853367085,7.193569212366
2.66,-3.5816827795,2.07317,-0.7134337874999999,6.76829,8.9686717575,-1.15854,9.683724097468472,7.172865417990219
2.665,-3.5577545534999997,1.89024,-0.670382594,6.76829,9.016528209499999,-1.15854,9.716213832455388,7.122146566401172
2.67,-3.6009038135,1.64634,-0.6655773355,6.95122,9.007015759,-1.03659,9.72295399281949,7.218338708601862
2.675,-3.653565524,1.46341,-0.6655773355,7.0122,8.959061240499999,-1.21951,9.698263377467228,7.266341741770752
2.68,-3.653565524,1.15854,-0.7134337874999999,6.82927,8.959061240499999,-1.28049,9.701665172450417,7.044203170309613
2.685,-3.667883233,1.09756,-0.6895055615,6.58537,8.997405242,-1.21951,9.740743627620585,6.786673753069319
2.69,-3.6726884914999998,0.91463,-0.7087265955,6.21951,8.9686717575,-0.97561,9.717407433906622,6.361656038257648
2.695,-3.6966167175,0.54878,-0.73746008,6.09756,8.954354048499999,-0.91463,9.715414502304181,6.190149067583106
2.7,-3.6918114589999997,0.36585,-0.7278495629999999,5.4878,8.9015942715,-0.97561,9.664244275139398,5.5858401279127206
2.705,-3.643955007,0.30488,-0.6177208835,5.06098,8.882471304,-0.73171,9.620721576333858,5.122681904910747
2.71,-3.605709072,0.36585,-0.6320385924999999,5.0,8.8729588535,-0.54878,9.598437868227126,5.0433129697551
2.715,-3.5769755874999998,0.2439,-0.6033051079999999,4.7561,8.930327755999999,-0.30488,9.638956646675709,4.772098724293118
2.72,-3.5864880379999997,0.30488,-0.565059173,4.7561,8.973477015999999,-0.30488,9.680158990036722,4.775603714589392
2.725,-3.5864880379999997,0.42683,-0.6081103664999999,4.81707,8.973477015999999,-0.30488,9.682767394771089,4.845544246851947
2.729,-3.5912932964999995,0.42683,-0.7087265955,4.93902,9.0357492435,-0.30488,9.749074075011723,4.966795166271708
2.735,-3.6104162639999995,0.12195,-0.809244758,5.0,9.0836056955,-0.42683,9.808255456962069,5.019666886497549
2.7399999999999998,-3.6152215224999997,-0.2439,-0.7996342409999999,5.2439,9.073995178499999,-0.73171,9.800338263323777,5.300318287055976
2.745,-3.5816827795,-0.42683,-0.7134337874999999,5.36585,8.997405242,-0.85366,9.710341929658425,5.450070225877829
2.75,-3.5338263275,-0.67073,-0.5985979159999999,5.67073,8.954354048499999,-1.09756,9.645035220457208,5.814782491151324
2.755,-3.5625598119999995,-0.73171,-0.627233334,6.09756,8.939938273,-1.40244,9.64405259185206,6.299402783701007
2.76,-3.6344425565,-0.79268,-0.7087265955,6.28049,8.930327755999999,-1.82927,9.667586043746972,6.5893190054359945
2.765,-3.596098555,-0.85366,-0.6655773355,6.58537,8.9925999835,-2.2561,9.707820170875054,7.013260343271167
2.769,-3.6104162639999995,-0.4878,-0.6895055615,7.13415,8.973477015999999,-2.43902,9.697103344575398,7.555320219745818
2.775,-3.6248320394999998,-0.18293,-0.718239046,7.43902,8.997405242,-2.56098,9.72669397742901,7.86963153557395
2.78,-3.667883233,0.0,-0.670382594,7.92683,8.9686717575,-2.68293,9.71287049882983,8.368557058047701
2.785,-3.6344425565,0.36585,-0.636843851,8.29268,8.9686717575,-2.62195,9.698031546702294,8.70499911587589
2.79,-3.605709072,0.91463,-0.636843851,8.47561,9.011821017499999,-2.9878,9.727262001915767,9.03324203976623
2.795,-3.5912932964999995,0.97561,-0.6177208835,8.65854,9.002210500499999,-3.04878,9.711784621103904,9.231315685865152
2.8,-3.529021069,0.79268,-0.6320385924999999,9.26829,8.94954879,-2.92683,9.640948399013748,9.751711385977336
2.805,-3.6583707824999996,1.03659,-0.660772077,9.93902,8.963866499,-3.10976,9.704184619631217,10.465622038182918
2.81,-3.6583707824999996,0.97561,-0.6751878524999999,10.54878,9.030943985,-3.04878,9.767164618179676,11.02377584355288
2.815,-3.620026781,1.21951,-0.6559668185,11.03659,9.002210500499999,-2.92683,9.724951426996572,11.48302474599354
2.82,-3.6009038135,1.34146,-0.6033051079999999,11.70732,8.954354048499999,-3.04878,9.67010557094937,12.17193148199578
2.825,-3.6726884914999998,1.40244,-0.6177208835,12.56098,8.963866499,-3.10976,9.706756536423642,13.015977249964752
2.83,-3.744571236,1.34146,-0.612915625,13.04878,8.9208153055,-3.23171,9.694247006327554,13.509778826616666
2.835,-3.6152215224999997,1.28049,-0.6177208835,13.29268,8.944743531499999,-3.29268,9.667463089713365,13.754153474674478
2.84,-3.5769755874999998,1.15854,-0.6081103664999999,14.26829,8.973477015999999,-3.35366,9.679248024929208,14.70283475562791
2.845,-3.6871042669999996,1.21951,-0.670382594,15.2439,8.9686717575,-3.35366,9.720145255696846,15.65601249506719
2.85,-3.667883233,1.09756,-0.5793768819999999,15.79268,8.973477015999999,-3.53659,9.71145379121987,16.221000226992786
2.854,-3.653565524,0.79268,-0.660772077,16.64634,8.9015942715,-3.71951,9.64487124591645,17.075237381017576
2.86,-3.643955007,1.03659,-0.7565830474999999,17.56098,8.9686717575,-3.78049,9.710195625968762,17.99318320999928
2.8649999999999998,-3.481164617,1.52439,-0.7805112734999999,18.84146,8.983087532999999,-3.84146,9.66558671598643,19.28940628260238
2.87,-3.5673650704999997,1.70732,-0.5123974625,21.15854,8.954354048499999,-3.96341,9.652414264404955,21.594151415188787
2.875,-3.643955007,1.76829,-0.69431082,22.86585,8.983087532999999,-3.84146,9.718865017755387,23.253618227669428
2.88,-3.7205449434999998,1.76829,-0.670382594,24.14634,8.983087532999999,-3.96341,9.746164841848387,24.533267286437816
2.885,-3.744571236,1.89024,-0.670382594,25.2439,8.9112047885,-4.02439,9.689210357217044,25.632463973244946
2.89,-3.744571236,1.89024,-0.6655773355,26.46342,8.925620563999999,-4.08537,9.70213942300921,26.843543979715122
2.894,-3.629637298,1.70732,-0.6559668185,28.10976,8.939938273,-4.20732,9.670938719020814,28.474112636259626
2.9,-3.7205449434999998,1.58537,-0.6559668185,29.87805,8.8872765625,-4.20732,9.656936980323433,30.214447064637806
2.905,-3.8498946569999997,1.89024,-0.718239046,31.52439,8.839420110499999,-4.08537,9.668138605083605,31.844158336602334
2.91,-3.864212366,2.37805,-0.7278495629999999,32.7439,8.868153594999999,-3.84146,9.700827303916817,33.05412113404469
2.915,-3.8690176244999996,2.62195,-0.7469725305,33.96342,8.9208153055,-3.78049,9.752343874928542,34.27361411551166
2.92,-3.864212366,2.9878,-0.7805112734999999,35.30488,8.9015942715,-3.47561,9.735487436795836,35.601142755907425
2.925,-3.830673623,3.35366,-0.73746008,36.82927,8.844225369,-3.35366,9.666345232465305,37.133397360383015
2.93,-3.9168740764999996,3.84146,-0.6751878524999999,38.23171,8.8633483365,-3.23171,9.713738976391047,38.559880886483555
2.935,-3.9887568209999995,4.32927,-0.7230443045,39.5122,8.834614852,-3.41463,9.720256870398172,39.89506517866339
2.94,-3.9552180779999997,4.5122,-0.7134337874999999,40.91463,8.7867584,-3.29268,9.662290670107952,41.29417196723165
2.945,-4.0174903055,4.81707,-0.6991160785,42.43903,8.743609139999998,-2.92683,9.647781736704827,42.81170125765502
2.95,-4.060541498999999,4.93902,-0.7326548214999999,43.96342,8.801076109,-2.62195,9.720273711628646,44.317613185496576
2.955,-4.0510290485,5.18293,-0.7278495629999999,45.60976,8.7962708505,-2.56098,9.711590097069896,45.974684220806786
2.96,-4.141936694,5.67073,-0.69431082,47.13415,8.781953141499999,-2.31707,9.734495779000289,47.530559520589485
2.965,-4.1467419525,5.97561,-0.7565830474999999,48.71951,8.781953141499999,-2.19512,9.74117999566221,49.13366586493013
2.97,-4.199403663,6.28049,-0.718239046,50.18293,8.7484143985,-2.13415,9.73065326377931,50.61941933929606
2.975,-4.2616758905,7.31707,-0.7134337874999999,51.82927,8.686142170999998,-1.89024,9.701542917476587,52.37734003722793
2.979,-4.357486861,7.7439,-0.7230443045,53.47561,8.714875655499998,-2.0122,9.770339937836557,54.070859073276246
2.985,-4.319142859499999,8.41463,-0.73746008,54.81707,8.6766297205,-2.19512,9.720223542544037,55.502573933433034
2.9899999999999998,-4.3478763439999994,9.20732,-0.7134337874999999,56.34146,8.6430909775,-2.19512,9.701342078145853,57.13101966820126
2.995,-4.3862203455,9.39024,-0.6895055615,58.17073,8.6334804605,-2.07317,9.708312505294257,58.96022786454781
3.0,-4.496349025,10.12195,-0.7230443045,59.87805,8.628675202,-2.0122,9.756740406636741,60.76087303886441
3.005,-4.553815994,10.67073,-0.7469725305,61.58537,8.604746976,-1.70732,9.764060558472224,62.52629221657238
3.01,-4.5968671875,11.09756,-0.73746008,63.17073,8.614357493,-1.52439,9.791945175822473,64.15622130049898
3.015,-4.5872566704999995,11.34146,-0.7565830474999999,64.63415,8.532962298,-1.09756,9.717344660343203,65.63083649556587
3.019,-4.6159901549999995,11.52439,-0.73746008,66.95122,8.5616957825,-0.85366,9.754683344564743,67.9411963373924
3.025,-4.687872899499999,11.58537,-0.7421672719999999,69.02439,8.571208233,-0.73171,9.797580066268479,69.99373266538298
3.03,-4.74053461,11.64634,-0.7326548214999999,71.15854,8.4803005875,-0.60976,9.742943576272415,72.10788346349379
3.035,-4.8267350635,11.76829,-0.6751878524999999,73.41463,8.427638877,-0.42683,9.735417148253367,74.35309496860168
3.04,-4.788391062,12.0122,-0.636843851,75.54878,8.437151327499999,-0.36585,9.722128448870288,76.49865982192694
3.045,-4.8315403219999995,11.95122,-0.6799931109999999,77.86585,8.451567103,-0.36585,9.758850291434497,78.77852563950026
3.05,-4.893714483,12.07317,-0.660772077,80.36585,8.432346069,-0.2439,9.771873996641924,81.26801810848718
3.055,-4.855468548,11.95122,-0.588987399,83.10976,8.3989053925,-0.06098,9.719264003460529,83.96468058241155
3.06,-4.855468548,11.95122,-0.588987399,83.10976,8.3989053925,-0.06098,9.719264003460529,83.96468058241155
3.065,-4.903325,11.40244,-0.38304774899999994,89.63415,8.394100134,-0.91463,9.728835423279488,90.36112566924453
3.07,-4.8602738064999995,10.85366,-0.359119523,93.29269,8.3892948755,-1.82927,9.702138775241275,93.93973691449536
3.075,-4.893714483,10.30488,-0.29214010349999997,97.68293,8.437151327499999,-3.53659,9.758038214945254,98.28862006370524
3.08,-4.8075140295,9.32927,-0.26340661899999995,102.56098,8.451567103,-5.30488,9.726796013450892,103.1209564012461
3.085,-4.845858031,7.86585,-0.31126307099999995,107.62196,8.499423555,-7.0122,9.788739731102487,108.13662108325791
3.09,-4.903325,6.28049,-0.335191297,113.47561,8.4228336185,-8.65854,9.751875482497883,113.9786336751051
3.095,-4.903325,6.28049,-0.335191297,113.47561,8.4228336185,-8.65854,9.751875482497883,113.9786336751051
3.1,-4.893714483,5.06098,-0.33999655549999996,119.93903,8.537767556499999,-10.42683,9.846700663049516,120.4977311809239
3.104,-4.9272532259999995,3.10976,-0.29684729549999994,126.70732,8.489813038,-12.37805,9.820532984017103,127.34846552135011
3.11,-4.9847201949999995,-1.82927,-0.1340569055,142.98781,8.580818749999999,-17.43902,9.924507901992149,144.05894438003284
3.1149999999999998,-4.9559867104999995,-4.69512,-0.17240090699999996,151.58537,8.523351781,-20.18293,9.860986356854111,152.9951607510388
3.12,-5.171438811,-7.56098,-0.3064578125,161.89024,8.441956586,-23.41463,9.90476283242906,163.74939121674592
3.125,-5.171438811,-7.56098,-0.3064578125,161.89024,8.441956586,-23.41463,9.90476283242906,163.74939121674592
3.13,-5.190659845,-11.15854,-0.2154521005,173.29269,8.427638877,-26.52439,9.900225566886196,175.6656275064641
3.135,-5.3343272675,-14.5122,-0.22025735899999999,185.30489,8.394100134,-29.32927,9.948089151219268,188.1720284353788
3.14,-5.425234913,-16.46342,-0.17720616549999998,197.62196,8.360561391,-31.40244,9.968127339626294,200.7774800875128
3.144,-5.444455947,-17.62195,-0.11012867949999999,209.87805,8.3989053925,-33.71951,10.00978724434429,213.298697483705
3.15,-6.071689281,-19.81707,0.16279038999999998,236.82927,8.465884812,-39.5122,10.419362604600098,240.91914274494212
3.155,-6.071689281,-19.81707,0.16279038999999998,236.82927,8.465884812,-39.5122,10.419362604600098,240.91914274494212
3.16,-6.4499317715,-21.28049,0.25379610199999997,250.36586,8.2265044855,-42.68293,10.45664422118048,254.86811417194698
3.165,-7.263981788,-20.54878,0.148472681,264.39026,8.0205648355,-45.85366,10.82205783729962,269.1226859217773
3.17,-8.614357493,-17.80488,0.4213917505,277.37805,8.5616957825,-47.86586,12.15266887134974,282.04031081949347
3.175,-9.849701193499998,-13.65854,0.2393803265,286.95123,8.959061240499999,-47.92683,13.3168575442174,291.24653671295977
3.18,-11.482606485,-7.56098,-0.0048052584999999995,292.5,9.816260517,-45.97561,15.106596086395056,296.18773629816695
3.185,-12.919084577,3.53659,0.05266171049999999,292.07318,11.003747765499998,-41.95122,16.970208733253056,295.0917735275399
3.19,-13.996541212499999,18.84146,-0.25379610199999997,286.64636,12.109839819,-35.18293,18.50988381423393,289.4114283845165
3.195,-13.623005913999998,35.2439,-1.1970977655,277.37805,11.5591964215,-30.42683,17.906265805685518,281.25879024994293
3.2,-12.794638188499999,48.29268,-1.0486250844999998,270.91464,10.002979132999998,-28.53659,16.274580562266376,276.66091533995206
3.205,-11.899192976999998,59.08537,-0.20593965,268.29269,9.6965213205,-25.54878,15.35108238406137,275.9072101539962
3.21,-10.5775507565,71.64634,0.3064578125,266.95123,8.7484143985,-21.15854,13.730012778036958,277.2072168051188
3.215,-10.314242204,84.93903,1.072651377,268.47562,9.725254805,-15.91463,14.216706870493264,282.04090625255446
3.22,-10.941475538,92.5,0.3064578125,266.89026,10.6924846945,-15.97561,15.301602278245616,282.91673863124413
3.225,-10.443493851,92.2561,-0.014317708999999998,261.70734,9.816260517,-21.09756,14.332680815195701,278.2930592649396
3.229,-10.548817271999999,87.92683,0.277724328,258.78049,10.443493851,-27.62195,14.8465901962802,274.7024600550412
3.235,-11.3293285455,84.87805,0.9336911465,252.74391,11.381990255999998,-31.28049,16.086490190113334,268.44410306156976
3.2399999999999998,-12.239189532500001,86.7683,0.023928225999999997,242.37805,11.4299447745,-35.4878,16.746401718595457,259.87543353601643
3.245,-12.919084577,87.5,-0.287334845,231.28049,10.386026882,-42.37805,16.578747299312365,250.88406521029307
3.25,-13.125024226999999,84.39024,0.8715169855,223.71951,8.3461456155,-49.87805,15.578316643671158,244.25386718269212
3.255,-12.550452603499998,81.82927,1.5131660949999999,220.91464,7.527388407,-56.70732,14.712753257415672,242.3118398606327
3.26,-11.832115490999998,78.65854,1.6376124834999999,218.35367,8.063714095499998,-64.39024,14.411947011158572,240.85596136416905
3.265,-11.0133582825,75.42683,1.4844326104999999,212.37805,9.303863054499999,-71.64634,14.493428461572412,236.4885638694755
3.269,-9.586392641,72.19512,1.3743039309999998,203.47562,10.453104368,-78.47561,14.249737755147695,229.7234960796803
3.275,-8.2265044855,69.45122,1.1731695395,194.93903,10.8313468585,-84.7561,13.651731669920123,223.62534262475555
3.28,-7.5465113745,66.82927,0.8906399529999999,187.92683,10.740341146499999,-90.73171,13.156671364541207,219.12299733735364
3.285,-6.497886289999999,63.17073,1.0343073754999998,179.81708,10.208918783,-96.21951,12.145548184527277,213.5015632099667
3.29,-4.979914936499999,57.80488,1.4269656414999998,170.0,8.638285718999999,-99.93903,10.072525198770993,205.4974789849143
3.295,-3.8929458505,50.30488,1.8866033269999998,161.46342,6.751682391999999,-102.2561,8.018697813910652,197.62926639827614
3.3,-2.140399429,49.57317,0.8810294359999999,153.35367,8.039687803,-103.71951,8.366247818016687,191.65746539323194
3.305,0.8283677254999999,61.28049,-3.7253502019999996,132.86586,9.346914248,-107.13415,10.096000850616885,181.34597129355313
3.31,-11.9039982355,56.89024,-0.36392478149999996,110.91463,10.50096082,-117.13415,15.877902675748834,171.05251723233133
3.315,-14.9589658435,64.14634,1.9776090389999998,75.91463,19.4360938345,-112.37805,24.60575827243743,150.0220320660769
3.32,-11.3964060315,78.23171,0.7230443045,20.12195,19.8622908435,-103.29269,22.910946315088413,131.12769779403092
3.325,-8.2504327115,86.64635,0.9097629205,-25.0,16.572650101,-95.85366,18.535102909578928,131.60742419680625
3.33,-5.4778966235,86.89024,2.4229290155,-56.40244,13.843263273,-88.23171,15.083563056436471,136.07344963193702
3.335,-3.040649899,79.69512,3.816355914,-79.14635,11.0133582825,-80.42683,12.045919845712193,138.1446048674569
3.34,-1.398232157,68.65854,4.242552923,-94.2683,8.312704939,-72.68293,9.436915379094998,137.41657765061134
3.345,-0.3064578125,54.2683,4.3287533765,-101.64635,6.6702871969999995,-65.67073,7.957685183259296,132.62606693989457
3.35,0.1579851315,36.82927,4.218624697,-103.78049,5.602441078499999,-59.32927,7.014919790986754,125.08695980039606
3.354,0.49798168699999995,17.07317,4.2856041165,-102.37805,5.008648420999999,-52.80488,6.610669210385201,116.45219451545685
3.36,0.6512596264999999,-3.04878,4.290409374999999,-98.47561,4.544205477,-45.42683,6.283434978050908,108.4911872375328
3.3649999999999998,0.5506433974999999,-20.42683,3.744571236,-93.96342,4.323948118,-37.13415,5.746437959279179,103.07921603392121
3.37,0.42619700899999996,-33.65854,2.9640599625,-90.91463,4.314337601,-27.86585,5.251742976115499,100.87057479359875
3.375,0.24418558499999998,-42.19512,2.2936773684999996,-89.57317,4.41495383,-17.37805,4.981204652664107,100.52749652441267
3.38,-0.18191335749999998,-45.67073,1.6902741940000001,-89.7561,4.788391062,-5.85366,5.081221140944444,100.87734334992422
3.385,-0.6895055615,-44.45122,1.1157025704999999,-91.82927,5.157121102,6.64634,5.321288209245336,102.23844493935195
3.39,-1.072651377,-39.87805,0.627233334,-95.54878,5.449163139,19.20732,5.589041201073498,105.30313087877919
3.394,-1.316836962,-33.35366,0.392658266,-100.18293,5.655102788999999,31.40244,5.819658723026899,110.15988079484336
3.4,-1.4987503194999998,-26.15854,0.277724328,-105.42683,5.832308954499999,43.10976,6.028201312440161,116.86546584016212
3.405,-1.6902741940000001,-19.32927,0.22986787599999997,-110.67073,6.0525663135,53.53659,6.2883563091346915,124.44998041901775
3.41,-1.9728037804999998,-13.71951,0.11012867949999999,-116.34147,6.2967518985,63.04878,6.599482370130771,133.03650347137585
3.415,-2.427734274,-10.30488,0.06707748599999999,-122.2561,6.588892002,71.40244,7.0222425839828375,141.9544045705451
3.42,-3.1843173215,-8.35366,0.028733484499999996,-128.78049,6.9575239755,78.17073,7.651656179337501,150.8802878734283
3.425,-3.9264845935,-8.65854,-0.047856451999999994,-136.5244,7.287910014,83.35366,8.27847835505731,160.19274248756466
3.43,-4.5872566704999995,-11.09756,-0.11012867949999999,-145.30489,7.517777889999999,86.82927,8.807498878255277,169.63486971904862
3.435,-5.0948488745,-15.06098,-0.2250626175,-154.81708,7.694984055499999,88.90244,9.231517635263938,179.1613943243365
3.44,-5.396501428499999,-19.69512,-0.474053461,-164.2683,7.7141070229999995,89.39024,9.426261269134573,188.04942739599608
3.445,-5.59763582,-24.39024,-0.8522959514999999,-172.92683,7.565634342,88.65854,9.449802016928192,195.85430568674792
3.45,-5.664713306,-27.92683,-1.3263494125,-180.54878,7.359792758499999,86.64635,9.381616547870712,202.20128526213625
3.455,-5.746108501,-29.7561,-1.9249473284999998,-187.01221,7.187391851499999,83.84147,9.401158798242498,207.09510923258182
3.46,-5.7796472439999995,-29.32927,-2.518739986,-192.2561,7.005478493999999,80.12196,9.424707014652952,210.33816234859643
3.465,-5.8178931789999995,-26.76829,-2.9017877349999996,-196.5244,6.86661633,75.91463,9.456144717836853,212.37093066830263
3.47,-5.9615606015,-22.5,-3.18912258,-199.81708,6.756389584,71.03659,9.558216771260557,213.25879249999167
3.475,-6.167500251499999,-17.13415,-3.3231794855,-202.5,6.6702871969999995,65.67073,9.67338164943174,213.57077017924388
3.479,-6.3638293845,-11.64634,-3.2800302254999996,-204.51221,6.617527419999999,60.18293,9.749286736457753,213.5014434093236
3.485,-6.593599193999999,-6.64634,-3.0981168679999995,-205.97562,6.617527419999999,54.63415,9.842029649079269,213.20182976701327
3.4899999999999998,-6.8522005544999995,-2.62195,-2.8395155074999994,-207.2561,6.651066163,49.02439,9.962538926449755,212.99144683269466
3.495,-7.125119623999999,-0.06098,-2.4947136935,-208.17073,6.7372666164999995,43.65854,10.118383642195607,212.6996113353875
3.5,-7.441187953499999,1.15854,-2.059004234,-208.84146,6.789928326999999,38.65854,10.281726668256672,212.3925148040646
3.505,-7.738035248999999,0.85366,-1.642417742,-209.2683,6.876128780499999,34.32927,10.48121522343775,212.06708584553735
3.51,-7.991831350999999,-0.54878,-1.2210259915,-209.63416,6.923985232499999,30.79268,10.644333906573163,211.88433481495605
3.515,-8.1929657425,-2.7439,-0.8283677254999999,-209.51221,6.991062718499999,28.47561,10.80212195267343,211.45627323672903
3.519,-8.2839714545,-5.4878,-0.4549304935,-209.20732,6.9767450095,27.19512,10.84002378874097,211.03884297028546
3.525,-8.3892948755,-8.59756,-0.153179873,-208.41464,7.019796202999999,27.07317,10.939893569557066,210.34147650459263
3.53,-8.427638877,-11.58537,0.0765899365,-207.07318,7.005478493999999,27.92683,10.959365492098135,209.26879965058862
3.535,-8.4467618445,-13.78049,0.2346731345,-205.30489,7.010185686,29.87805,10.979324227381044,207.92474031330352
3.54,-8.5616957825,-15.12195,0.33999655549999996,-203.04878,7.091580881,32.43903,11.122443603884664,206.17897831406526
3.545,-8.6191627515,-15.54878,0.5075922039999999,-200.7317,7.091580881,35.67073,11.173098754337193,204.46853284334804
3.55,-8.671824461999998,-15.18293,0.627233334,-198.47562,7.110801915,39.57317,11.231984020171591,202.9510504570454
3.555,-8.695752687999999,-14.08537,0.7948289824999999,-195.79269,7.19219711,44.02439,11.312628659660563,201.1748543440385
3.56,-8.729291431,-12.56098,0.9672298894999999,-192.92683,7.240053562,48.96342,11.382198299410405,199.4391046171881
3.565,-8.848932561,-10.91463,1.1587537639999999,-190.12195,7.3501822415,54.20732,11.561639016072597,197.99979434691795
3.57,-8.983087532999999,-9.20732,1.4030374155,-187.13416,7.460310921,59.87805,11.760978473444494,196.6960839780256
3.575,-9.11233918,-8.04878,1.5897560314999999,-184.08537,7.5465113745,65.67073,11.937834120832454,195.61403601546132
3.58,-9.308668312999998,-7.19512,1.7812799059999997,-180.97562,7.733229990499999,71.64634,12.232216068682657,194.7745949080485
3.585,-9.5001921875,-6.76829,1.9728037804999998,-177.86586,7.728522798499999,77.7439,12.404663276474915,194.23230393081812
3.59,-9.576782124,-7.13415,2.0302707494999996,-174.32927,7.6614453125,83.59756,12.431190588325379,193.46871197407864
3.595,-10.160964264499999,-7.68293,1.9584860714999999,-170.06097,7.536900857499999,89.81708,12.801786477382356,192.47563167957705
3.6,-11.391600773,-8.59756,1.733423454,-164.51219,7.7715739919999995,95.2439,13.898585804153685,190.2881477753139
3.604,-11.147415187999998,-9.69512,1.6568335174999997,-162.01219,8.9015942715,100.18293,14.36134893569424,190.731655798914
3.61,-11.7076691025,-11.28049,1.59456129,-161.58537,8.513741264,104.93903,14.563513718589205,193.0007286774273
3.6149999999999998,-11.865654233999999,-13.41463,1.4412833504999998,-159.51219,8.360561391,108.96342,14.586638916143446,193.64172575849813
3.62,-12.0811063345,-16.40244,1.5993665485,-157.13416,8.810686625999999,113.53659,15.037928795001394,194.55267036380485
3.625,-12.219968498499998,-18.65854,1.8435521334999998,-156.5244,9.1171444385,118.59756,15.357364268836506,197.2648223790679
3.63,-13.216029939,-20.79268,1.8291363579999997,-156.5244,8.930327755999999,123.59756,16.054903954688914,200.52077242743707
3.635,-13.934268985,-23.65854,1.5322890624999999,-155.18294,8.638285718999999,127.62196,16.466078527702624,202.30876416066803
3.64,-14.50403535,-26.46342,1.1635590225,-153.65854,9.160195631999999,131.34146,17.193897029161324,203.86720831943424
3.644,-14.920621842,-28.29268,0.8906399529999999,-154.57318,9.3709405405,134.63416,17.641789089869363,206.92921677665626
3.65,-15.1217562335,-30.12195,0.588987399,-155.97562,9.136267406,137.13416,17.67726788436253,209.86067698616742
3.655,-15.255813138999999,-32.2561,0.359119523,-157.07318,8.925620563999999,138.59756,17.678673700715912,211.9474545741845
3.66,-15.389968110999998,-35.30488,0.1436674225,-158.17073,8.6430909775,138.78049,17.65148096991373,213.36456778290858
3.665,-15.5814919855,-38.96342,-0.08139519499999999,-158.84146,8.269555679,137.80489,17.640155010658237,213.86665289600458
3.67,-15.787333569,-43.35366,-0.287334845,-159.14635,7.738035248999999,135.48781,17.58407381828204,213.45736626388467
3.675,-15.777821118499999,-48.47561,-0.5267151715,-158.96342,7.086873688999999,131.82927,17.304359184989003,212.1278154596926
3.68,-15.61022547,-53.29268,-0.8906399529999999,-157.86586,6.3685365765,126.64635,16.88285037771569,209.2869739459303
3.685,-15.3276958835,-57.31707,-1.3455704465,-155.60976,5.588025302999999,120.18293,16.369937315412216,204.80131978097063
3.69,-14.839226646999998,-60.06098,-1.766962197,-152.19513,4.8075140295,112.43903,15.69831182103672,198.52761616867866
3.695,-14.269460281999999,-60.73171,-2.241015658,-147.43903,4.1945984045,103.90244,15.041087184575808,190.32163619730312
3.7,-13.85287379,-59.7561,-2.6192581484999997,-141.40244,3.7780119125,94.39024,14.59575278980651,180.20809896456154
3.705,-13.402748554999999,-57.07317,-2.925715961,-134.7561,3.4955803924999995,84.02439,14.1567144844217,168.75026321736806
3.71,-12.9478180615,-51.7683,-3.1843173215,-128.04878,3.18912258,73.10976,13.709718165884242,156.27374684071538
3.715,-12.416297631499999,-44.2683,-3.4763593585,-120.79269,2.9113982519999997,61.95122,13.21838723313747,142.78833986644182
3.72,-12.105132627,-34.69512,-3.8020382049999997,-113.04878,2.6958480849999997,50.97561,12.971404215694525,128.77224400535582
3.725,-12.306168951999998,-22.98781,-4.1324242435,-105.36586,2.7341920865,40.36586,13.266293030432974,115.15123323558154
3.729,-12.306168951999998,-22.98781,-4.1324242435,-105.36586,2.7341920865,40.36586,13.266293030432974,115.15123323558154
3.735,-12.741976478,3.41463,-4.4628102819999995,-93.23171,2.542668212,18.65854,13.738260509079943,95.1417498393455
3.7399999999999998,-12.670093733499998,16.52439,-4.553815994,-88.35366,2.3990007894999996,7.86585,13.67566159682623,90.22913219404363
3.745,-12.617432023000001,29.63415,-4.8267350635,-83.84147,2.2936773684999996,-2.68293,13.702478538535113,88.9650102645321
3.75,-12.6126267645,42.31707,-5.056504873,-79.5122,2.1787434305,-12.98781,13.762031767409978,91.00333823998437
3.755,-12.62704254,54.20732,-5.166731618999999,-75.0,2.044686525,-23.41463,13.795581246009919,95.45511217121532
3.76,-12.62704254,54.20732,-5.166731618999999,-75.0,2.044686525,-23.41463,13.795581246009919,95.45511217121532
3.765,-12.607821505999999,63.59756,-5.1044593915,-70.73171,1.8291363579999997,-34.02439,13.724372795242271,101.02120347902118
3.769,-12.445031116,69.57317,-4.8985197414999995,-66.58537,1.5466067714999998,-44.69512,13.463516912074759,106.16822139275104
3.775,-12.176917305,71.09756,-4.175475436999999,-57.13415,1.0678461184999999,-66.21951,12.917128377104344,112.71289916782462
3.78,-12.210456048,67.5,-3.8786281414999997,-51.46342,0.9720351479999999,-76.95122,12.848495845394622,114.56973360178857
3.785,-12.196040272499998,62.0122,-3.629637298,-45.91463,0.8331729839999998,-87.62196,12.751934851807471,116.7530473740129
3.79,-12.196040272499998,62.0122,-3.629637298,-45.91463,0.8331729839999998,-87.62196,12.751934851807471,116.7530473740129
3.795,-12.085911593,55.73171,-3.4859698755,-39.87805,0.646454368,-98.10976,12.595203382899841,119.67375392534572
3.8,-11.760330813,48.47561,-3.284835484,-32.9878,0.6751878524999999,-108.17073,12.229121130494468,123.04058900397463
3.805,-11.468190709499998,41.40244,-3.131655611,-24.93903,0.7469725305,-117.80488,11.91153361144951,127.33462611210236
3.81,-11.257543867499999,36.28049,-3.270517775,-17.62195,0.8571012100000001,-126.40244,11.754284449912774,132.68151308451453
3.815,-12.4402258575,-20.4878,6.928790490999999,23.23171,-4.965597227499999,-147.98781,15.08060054770828,151.19475588445584
3.82,-11.286277351999999,-86.82927,0.29684729549999994,70.73171,-1.6376124834999999,-152.01219,11.408328073351889,188.81208339736392
3.825,-11.286277351999999,-86.82927,0.29684729549999994,70.73171,-1.6376124834999999,-152.01219,11.408328073351889,188.81208339736392
3.83,-2.1739381719999997,-106.28049,-5.286372749,77.37805,-1.4605043845,-154.81708,5.899560752648645,203.10399660314172
3.835,-0.6991160785,-72.37805,-7.0820684305,94.87805,-1.0198915999999998,-139.14635,7.189202697187812,183.30884651845776
3.84,-4.754852319,-11.76829,-7.3119363065,117.86586,5.8801654065,-103.35366,10.519000823919155,157.2031572153031
3.845,0.2825295865,29.26829,-0.9672298894999999,118.59756,13.101096000999998,-66.7683,13.139789688340075,139.21213999636564
3.85,-1.7716693889999997,38.47561,5.492312398999999,118.78049,15.978857443499997,-33.29268,16.989060983816145,129.21911588884439
3.854,-5.310300975,19.57317,9.9742456485,116.28049,16.395542002,-16.40244,19.91227436133435,119.05167523576726
3.86,-4.5633284445,-8.84146,10.740341146499999,103.29269,14.063520632,-22.07317,18.274613730590133,105.99422652303568
3.8649999999999998,-7.043724429,-29.69512,7.5943678265,99.02439,12.397174664,-37.31707,16.154826404687647,109.90993440117866
3.87,-15.207956687,-70.2439,9.021333468,94.87805,19.220641733999997,-50.67073,26.11703415017309,128.46623189673386
3.875,-12.3541234705,-122.68293,13.15856297,71.21951,20.173553914499998,-56.15854,27.069252366865477,152.5683503645386
3.88,-15.945416767,-76.40244,1.355082897,42.5,12.148183820499998,-31.76829,20.091563793486173,93.02046596033423
3.885,-14.987699327999998,-23.59756,-7.709301764499999,23.47561,9.7779165155,-7.37805,19.485176833345445,34.093763720484134
3.89,-7.7715739919999995,-16.76829,-7.852969187,12.80488,12.4929856345,-8.47561,16.67756509293025,22.737116488477604
3.894,-5.664713306,-9.81707,-7.2591765295,1.82927,14.068325890499999,-3.17073,16.813756691677494,10.47733844307322
3.9,-2.61445289,-4.87805,-3.8498946569999997,-5.73171,11.985393430499999,-2.9878,12.857165646747303,8.097828114167402
3.905,-2.327118045,-3.23171,1.283298219,-2.2561,9.509802704499998,-2.62195,9.874141997802578,4.733767900584058
3.91,-3.294446001,-2.56098,3.4476258739999994,2.19512,8.686142170999998,-0.42683,9.909014301907316,3.399905031570735
3.915,-3.8354788815,-2.56098,1.5226785454999998,3.59756,8.667019203499999,1.70732,9.599305708080987,4.734553632223422
3.92,-4.0366132729999995,-1.95122,-1.527483804,2.07317,9.356524765,2.62195,10.303980258390462,3.8703895333415734
3.925,-4.012685047,-1.89024,-2.7724380215,-0.54878,9.758793548,1.89024,10.909725266108339,2.7289510812031788
3.93,-3.7397659775,-3.17073,-1.5658278055,-2.43902,9.356524765,0.97561,10.197167349857596,4.117543219615309
3.935,-3.5482421029999998,-4.39024,0.26340661899999995,-3.10976,8.8298095935,0.4878,9.51971336364176,5.402107306894227
3.94,-3.5195086184999997,-4.69512,1.0246968585,-3.17073,8.6909474295,0.4878,9.43236512174164,5.6864425950940545
3.945,-3.529021069,-3.90244,0.42619700899999996,-3.17073,8.8058813675,0.54878,9.496271913462152,5.058035802057948
3.95,-3.643955007,-3.17073,-0.73746008,-3.17073,9.073995178499999,0.67073,9.80610238382586,4.533975760709358
3.955,-3.7349607189999996,-2.80488,-1.0630408599999999,-3.10976,9.145877922999999,0.54878,9.936149678065508,4.223638071662864
3.96,-3.5673650704999997,-2.7439,-0.46924820249999993,-3.10976,9.136267406,0.42683,9.819249947715504,4.1691459936658495
3.965,-3.6104162639999995,-1.52439,-0.26340661899999995,-2.62195,9.1314621475,1.21951,9.822835109962604,3.2688822729948535
3.97,-3.6487602655,-0.54878,-0.612915625,-2.2561,9.1410726645,1.58537,9.861456611278573,2.811502220397487
3.975,-3.6487602655,-0.2439,-0.9193734375,-2.0122,9.203344891999999,1.52439,9.942849500710281,2.536178408964953
3.979,-3.596098555,0.06098,-0.90025047,-1.95122,9.217662600999999,1.58537,9.935173856147781,2.514831224098349
3.985,-3.5195086184999997,0.42683,-0.5698644315,-1.03659,9.217662600999999,1.28049,9.883167013253326,1.701868771997418
3.9899999999999998,-3.5769755874999998,1.70732,-0.4931764285,0.06098,9.193734375,1.03659,9.877384729838948,1.9982940151289048
3.9949999999999997,-3.6248320394999998,3.47561,-0.521909913,0.73171,9.217662600999999,0.91463,9.91852313087727,3.667671254774615
3.9999999999999996,-3.6248320394999998,4.87805,-0.6512596264999999,1.09756,9.184123858,0.85366,9.89503296885763,5.07235104775882
4.005000000000001,-3.5912932964999995,5.91463,-0.7421672719999999,1.21951,9.0979234045,0.97561,9.809200277049227,6.117341542622906
4.010000000000001,-3.605709072,6.09756,-0.7039213369999999,1.28049,9.0979234045,1.34146,9.81166924813183,6.373335667082034
4.015000000000001,-3.5912932964999995,6.15854,-0.6416491095,1.34146,9.064482728,1.58537,9.771077128311816,6.499271336088378
4.019,-3.4955803924999995,6.15854,-0.6177208835,1.40244,9.045261693999999,1.95122,9.71686268727135,6.610727068454725
4.025,-3.4620416494999997,5.97561,-0.5123974625,1.58537,9.011821017499999,2.19512,9.667533376922153,6.56047747678475
4.03,-3.399769422,5.97561,-0.36873004,1.70732,8.930327755999999,2.56098,9.562695634325532,6.721716671721592
4.035,-3.366230679,6.09756,-0.38304774899999994,1.95122,8.892081821,2.62195,9.515637323564484,6.918245387704891
4.04,-3.4045746804999997,5.67073,-0.41178123349999995,2.37805,8.983087532999999,2.56098,9.615433124144978,6.661149982983418
4.045000000000001,-3.390158905,5.54878,-0.3303860385,2.7439,9.002210500499999,2.5,9.62507798570479,6.675922909860478
4.050000000000001,-3.4428206154999996,5.91463,-0.29684729549999994,3.35366,8.94954879,2.56098,9.593516334063747,7.265569626182106
4.055000000000001,-3.481164617,6.28049,-0.2393803265,3.59756,8.94954879,2.7439,9.605739616289755,7.740541312059513
4.0600000000000005,-3.4045746804999997,7.0122,-0.20113439149999998,3.96341,9.040554501999999,2.80488,9.662463945711684,8.529180469570333
4.065,-3.4045746804999997,7.80488,-0.32558077999999996,4.57317,9.078800437,3.23171,9.701636407033531,9.605934893980908
4.07,-3.4620416494999997,8.17073,-0.588987399,5.4878,9.0836056955,3.47561,9.738815686230717,10.438229852086991
4.075,-3.4620416494999997,8.10976,-0.636843851,6.40244,9.121949697,3.47561,9.777590129885153,10.901344416323154
4.08,-3.653565524,7.92683,-0.751777789,6.64634,9.169806149,3.47561,9.899447241762205,10.912760151153329
4.085000000000001,-3.6966167175,7.62195,-0.8715169855,6.40244,8.9208153055,3.47561,9.695641429372197,10.543492050938342
4.090000000000001,-3.5482421029999998,6.58537,-0.541130947,5.97561,8.94954879,3.47561,9.642472103557958,9.54750636454881
4.095000000000001,-3.505092843,5.91463,-0.4165864919999999,5.91463,8.963866499,2.92683,9.633801054374187,8.861829942099995
4.1000000000000005,-3.552949295,5.73171,-0.42619700899999996,6.09756,8.925620563999999,2.56098,9.616225612776626,8.751648761124958
4.104,-3.605709072,5.18293,-0.46924820249999993,6.09756,8.896887079499999,2.2561,9.611239852007992,8.314624979426313
4.11,-3.6344425565,4.81707,-0.474053461,5.67073,8.9208153055,2.19512,9.644420412613055,7.757570104884648
4.115,-3.6104162639999995,4.26829,-0.5027869455,5.30488,8.896887079499999,2.13415,9.614702284381714,7.135450060157383
4.12,-3.620026781,3.78049,-0.545838139,5.06098,8.930327755999999,1.95122,9.651595049458312,6.6115718773148044
4.125,-3.5816827795,3.23171,-0.49798168699999995,4.93902,8.868153594999999,1.58537,9.577086481705468,6.111568221119683
4.130000000000001,-3.6391497484999995,2.5,-0.4931764285,4.7561,8.8729588535,1.58537,9.602917926210743,5.602132205410722
4.135000000000001,-3.67749375,2.2561,-0.5123974625,4.5122,8.94954879,1.28049,9.689217459911609,5.204766151336677
4.140000000000001,-3.629637298,1.76829,-0.4931764285,4.02439,8.925620563999999,0.91463,9.648014943871118,4.489890024610848
4.144,-3.620026781,1.03659,-0.521909913,3.78049,8.9351330145,0.60976,9.654718320036723,3.9671691072854456
4.15,-3.6487602655,0.42683,-0.5315204299999999,3.84146,8.925620563999999,0.18293,9.657259854384092,3.869426593876669
4.155,-3.7062272344999996,-0.2439,-0.6847003029999998,3.29268,8.892081821,-0.36585,9.657849342893918,3.321908339328465
4.16,-3.6726884914999998,-1.52439,-0.5841821405,2.37805,8.801076109,-1.21951,9.554519883557012,3.076701369112706
4.165,-3.4428206154999996,-2.9878,-0.028733484499999996,1.46341,8.753219657,-1.82927,9.405992439255654,3.796675703954711
4.170000000000001,-3.4188923895,-3.29268,-0.17720616549999998,1.40244,8.743609139999998,-2.0122,9.389937592399843,4.10579205221112
4.175000000000001,-3.629637298,-3.47561,-0.5027869455,1.70732,8.9208153055,-2.13415,9.644065913422669,4.42147064640262
4.180000000000001,-3.5625598119999995,-4.08537,-0.33999655549999996,1.40244,8.9208153055,-2.2561,9.611887212544287,4.87309687985987
4.1850000000000005,-3.4955803924999995,-4.26829,-0.40226878299999996,1.64634,8.8298095935,-2.0122,9.505074429570312,4.997767877733019
4.19,-3.596098555,-4.57317,-0.46444294399999997,2.0122,8.8537378195,-1.95122,9.567460762498536,5.363775925344011
4.195,-3.629637298,-4.81707,-0.483663978,1.89024,8.848932561,-1.95122,9.576628071914119,5.530319170798373
4.2,-3.6344425565,-5.18293,-0.49798168699999995,1.82927,8.8729588535,-2.07317,9.601383091669119,5.874268121791855
4.205,-3.6344425565,-5.4878,-0.5123974625,1.64634,8.868153594999999,-1.82927,9.597701393593473,6.0143672126417425
4.210000000000001,-3.643955007,-5.60976,-0.541130947,1.64634,8.868153594999999,-1.82927,9.602883888673906,6.12585270685641
4.215000000000001,-3.653565524,-6.15854,-0.5363256885,1.46341,8.8298095935,-1.76829,9.5708789429065,6.57236892480938
4.220000000000001,-3.663176041,-6.76829,-0.565059173,0.97561,8.858543078,-1.70732,9.602704621153855,7.0481562112796565
4.2250000000000005,-3.663176041,-7.56098,-0.5841821405,0.54878,8.844225369,-1.95122,9.590643870893068,7.82795232083078
4.229,-3.6487602655,-8.53659,-0.6512596264999999,-0.12195,8.848932561,-2.37805,9.593810402823612,8.862469319162692
4.235,-3.67749375,-10.06098,-0.7660954979999999,-1.03659,8.858543078,-2.80488,9.622091667518381,10.495960613631322
4.24,-3.7636942035,-12.07317,-0.809244758,-2.5,8.777147883,-3.47561,9.584289024015362,12.809812595077258
4.245,-3.7253502019999996,-14.69512,-0.7660954979999999,-4.39024,8.733998623,-4.45122,9.526167560260694,15.96978768050471
4.25,-3.653565524,-17.37805,-0.5363256885,-5.91463,8.8201990765,-5.54878,9.562013283372798,19.177289415550888
4.255000000000001,-3.5195086184999997,-19.08537,-0.20593965,-7.5,8.9351330145,-6.15854,9.605516854492826,21.410954275055094
4.260000000000001,-3.5769755874999998,-18.90244,-0.043051193499999994,-8.71951,8.963866499,-6.28049,9.651295787132796,21.743427679043613
4.265000000000001,-3.605709072,-17.62195,-0.26340661899999995,-9.14634,9.030943985,-5.97561,9.727716598413206,20.73394733450917
4.269,-3.5434368444999995,-15.54878,-0.3064578125,-9.14634,9.1553903735,-5.18293,9.821966908566678,18.76919972372024
4.275,-3.4859698755,-12.92683,-0.5123974625,-8.29268,9.2224678595,-3.47561,9.87261113140695,15.746470725321279
4.28,-3.552949295,-10.67073,-1.0630408599999999,-6.58537,9.1553903735,-2.37805,9.877989545147686,12.76270733709349
4.285,-3.596098555,-9.7561,-0.7996342409999999,-5.18293,9.136267406,-2.0122,9.851026436396905,11.229122825710832
4.29,-3.505092843,-8.41463,-0.5937926575,-4.20732,9.1075339215,-1.15854,9.776780640344954,9.478911042461576
4.295000000000001,-3.5434368444999995,-7.13415,-0.6320385924999999,-3.10976,9.064482728,-0.42683,9.752961836261834,7.7941572558551835
4.300000000000001,-3.5434368444999995,-6.64634,-0.660772077,-2.5,9.073995178499999,0.0,9.763705900330276,7.100974256790402
4.305000000000001,-3.4763593585,-6.15854,-0.565059173,-2.2561,9.0932162125,0.12195,9.751458729118163,6.559914172007131
4.3100000000000005,-3.4476258739999994,-5.67073,-0.5363256885,-1.95122,9.007015759,0.2439,9.659197808001117,6.0019934547865015
4.315,-3.4285029064999994,-4.93902,-0.588987399,-1.40244,9.0836056955,0.4878,9.726943547043941,5.157393271217544
4.32,-3.4715540999999996,-4.57317,-0.5841821405,-0.60976,9.088410954,0.30488,9.746392681976916,4.623704458645687
4.325,-3.4620416494999997,-4.32927,-0.5315204299999999,-0.30488,9.06918992,0.30488,9.722060077751507,4.3506875734416965
4.33,-3.4524311324999997,-3.84146,-0.483663978,0.18293,9.064482728,0.18293,9.711748488015962,3.850161256544977
4.335000000000001,-3.4428206154999996,-3.23171,-0.5315204299999999,0.4878,9.078800437,-0.06098,9.724204087373453,3.2688861902030175
4.340000000000001,-3.5002875845,-2.92683,-0.5985979159999999,1.09756,9.054872211,-0.4878,9.726306770649607,3.163687823174088
4.345000000000001,-3.552949295,-2.80488,-0.69431082,1.64634,9.0357492435,-0.79268,9.733975580358772,3.3475556444068255
4.3500000000000005,-3.5195086184999997,-2.5,-0.636843851,2.19512,9.0932162125,-1.09756,9.771340342733188,3.503311257653251
4.354,-3.481164617,-2.0122,-0.612915625,2.56098,8.997405242,-1.34146,9.666823353242313,3.5223688523492256
4.36,-3.5338263275,-1.89024,-0.588987399,3.10976,8.9925999835,-1.76829,9.679963281560376,4.046043010065513
4.365,-3.5577545534999997,-1.58537,-0.6081103664999999,3.53659,9.016528209499999,-2.13415,9.712115970966574,4.424416694605064
4.37,-3.5002875845,-1.21951,-0.6033051079999999,4.14634,9.011821017499999,-2.13415,9.686532314455905,4.82015936024941
4.375,-3.4715540999999996,-1.15854,-0.5698644315,4.87805,9.0261387265,-2.19512,9.687497801266263,5.473220126077518
4.380000000000001,-3.5002875845,-0.67073,-0.6033051079999999,5.54878,9.050066952499998,-2.37805,9.722124360049934,6.07403984377778
4.385000000000001,-3.5195086184999997,-0.60976,-0.627233334,6.34146,9.030943985,-2.5,9.71279114524678,6.843677533987117
4.390000000000001,-3.4428206154999996,-0.42683,-0.627233334,7.07317,9.06918992,-2.56098,9.720938290660122,7.534622502700451
4.394,-3.4428206154999996,-0.42683,-0.627233334,7.07317,9.06918992,-2.56098,9.720938290660122,7.534622502700451
4.4,-3.596098555,0.4878,-0.6416491095,9.20732,9.054872211,-2.43902,9.76393102979201,9.537374323303032
4.405,-3.5721703289999995,0.97561,-0.660772077,10.12195,9.064482728,-2.62195,9.765340123279945,10.501443161637358
4.41,-3.5816827795,1.03659,-0.612915625,10.79268,9.073995178499999,-2.56098,9.77453352318039,11.14069472568475
4.415,-3.5338263275,1.15854,-0.6751878524999999,11.52439,9.0932162125,-2.56098,9.779079109832814,11.862225691837937
4.420000000000001,-3.6248320394999998,1.34146,-0.6655773355,12.2561,9.045261693999999,-2.68293,9.76724933730376,12.617829271570447
4.425000000000001,-3.67749375,1.46341,-0.6655773355,12.92683,9.002210500499999,-2.68293,9.747140471242465,13.283170407018801
4.430000000000001,-3.67749375,1.46341,-0.6655773355,12.92683,9.002210500499999,-2.68293,9.747140471242465,13.283170407018801
4.4350000000000005,-3.6152215224999997,1.46341,-0.6655773355,13.47561,8.954354048499999,-2.86585,9.679528721594188,13.85448410886165
4.44,-3.7110324929999994,1.70732,-0.718239046,14.45122,9.045261693999999,-2.86585,9.803284582436874,14.83124395636792
4.445,-3.5912932964999995,1.46341,-0.612915625,15.0,9.050066952499998,-2.92683,9.755857981212497,15.352781594128146
4.45,-3.6009038135,1.40244,-0.6177208835,16.09756,8.9686717575,-3.10976,9.684273873542043,16.45505646191468
4.455,-3.667883233,1.46341,-0.646454368,16.95122,8.973477015999999,-3.23171,9.715686307076256,17.318469269557283
4.460000000000001,-3.667883233,1.46341,-0.646454368,16.95122,8.973477015999999,-3.23171,9.715686307076256,17.318469269557283
4.465000000000001,-3.67749375,1.34146,-0.6751878524999999,17.5,9.016528209499999,-3.17073,9.761025554221334,17.835443466998516
4.470000000000001,-3.6391497484999995,1.28049,-0.6512596264999999,18.17073,9.007015759,-3.04878,9.736215017962106,18.46916735701423
4.4750000000000005,-3.6583707824999996,1.28049,-0.6895055615,19.20732,9.054872211,-2.9878,9.790291387856088,19.480445196722275
4.479,-3.6583707824999996,0.97561,-0.6751878524999999,20.18293,9.040554501999999,-2.80488,9.776051407498105,20.400240931699802
4.485,-3.5721703289999995,0.85366,-0.9433016634999999,23.29268,9.073995178499999,-2.07317,9.797326542847854,23.4003356990215
4.49,-3.5721703289999995,0.85366,-0.9433016634999999,23.29268,9.073995178499999,-2.07317,9.797326542847854,23.4003356990215
4.495,-3.366230679,2.31707,-1.1587537639999999,25.30488,9.203344891999999,-2.13415,9.867916521278818,25.500203164324006
4.5,-3.2464914824999997,3.96341,-0.38304774899999994,28.23171,8.939938273,-2.80488,9.51887224670072,28.646211270717806
4.505000000000001,-3.6391497484999995,3.84146,-0.5171046545,31.15854,8.892081821,-2.68293,9.621846352289765,31.50888038709246
4.510000000000001,-3.7205449434999998,4.57317,-1.0007686325,32.62195,8.954354048499999,-2.62195,9.748048469221297,33.04512259704751
4.515000000000001,-3.6966167175,4.57317,-0.6416491095,34.08537,8.892081821,-2.62195,9.651207584918133,34.49059224902205
4.519,-3.7588889449999994,4.45122,-0.761388306,35.85366,8.882471304,-2.13415,9.675084222875798,36.191889852652075
4.525,-3.6248320394999998,4.39024,-0.7326548214999999,37.62195,8.9015942715,-2.0122,9.639220454811403,37.93065090266841
4.53,-3.6966167175,4.26829,-0.6416491095,39.81707,8.892081821,-1.89024,9.651207584918133,40.08977887400478
4.535,-3.8402841399999996,4.14634,-0.636843851,41.89024,8.834614852,-1.95122,9.654210063473398,42.14014240770432
4.54,-3.7062272344999996,5.30488,-0.775706015,43.84146,9.06918992,-1.64634,9.827921750832488,44.19192010019026
4.545000000000001,-3.481164617,7.2561,-0.6416491095,46.34146,8.94954879,-1.82927,9.62416979354403,46.94175253305419
4.550000000000001,-3.6487602655,7.5,-0.44051471799999997,49.63415,8.896887079499999,-1.95122,9.626115748173833,50.2355064243499
4.555000000000001,-3.7876224295,7.86585,-0.7087265955,52.7439,9.007015759,-1.82927,9.796668308077743,53.35856831067902
4.5600000000000005,-3.792427688,8.59756,-0.6895055615,55.54878,8.9015942715,-2.07317,9.700325059628161,56.248404699963714
4.565,-3.8546999154999995,9.14634,-0.6559668185,58.71951,8.868153594999999,-1.95122,9.69191168397856,59.45959678238745
4.57,-3.9025563675,9.7561,-0.7326548214999999,61.95122,8.9351330145,-1.64634,9.777695601510095,62.7363178876
4.575,-3.830673623,10.12195,-0.7230443045,65.18293,8.90639953,-1.46341,9.722181136977548,65.9803743852329
4.58,-4.0892749835,10.79268,-0.8235624669999999,69.02439,8.868153594999999,-1.21951,9.800233324377611,69.8737115165253
4.585000000000001,-4.108496017499999,11.46342,-0.761388306,72.56097,8.882471304,-0.91463,9.816198253127855,73.46659726347886
4.590000000000001,-4.1802806955,11.70732,-0.7805112734999999,76.15854,8.90639953,-0.54878,9.869543916980904,77.05508235024085
4.595000000000001,-4.151547211,12.43902,-0.8331729839999998,79.32927,8.848932561,-0.2439,9.809848568431388,80.29895257413573
4.6000000000000005,-4.1898912125,13.90244,-0.8763222439999999,83.10976,8.8776660455,0.12195,9.855763971572042,84.26461248361437
4.604,-4.161157727999999,14.87805,-0.7421672719999999,87.37805,8.939938273,0.54878,9.888808938490632,88.63735754800794
4.61,-4.16586492,15.73171,-0.6799931109999999,91.89024,8.8633483365,0.60976,9.817115915421972,93.22915163209038
4.615,-4.2712864075,15.97561,-0.5841821405,96.7683,8.930327755999999,0.2439,9.916446449094423,98.07845577379416
4.62,-4.223331889,16.34146,-0.43570945949999995,101.58537,8.973477015999999,-0.42683,9.927218378499706,102.89223924484003
4.625,-4.242552923,17.19512,-0.450125235,106.64635,8.8776660455,-1.09756,9.8496102687905,108.02925880561479
4.630000000000001,-4.2377476645,17.86585,-0.5363256885,112.37805,8.94954879,-1.95122,9.916681605089005,113.80607179546001
4.635000000000001,-4.300019892,18.10976,-0.545838139,118.59756,8.9208153055,-2.7439,9.918117566374464,120.00364007987925
4.640000000000001,-4.2520653735,17.13415,-0.4931764285,125.42683,9.021333468,-3.59756,9.985376330965329,126.64284905996469
4.644,-4.3862203455,16.21951,-0.5267151715,132.68292,9.0596774695,-4.63415,10.079390539240572,133.7509069523979
4.65,-4.2520653735,15.06098,-0.36392478149999996,140.91464,9.06918992,-6.21951,10.023108649123639,141.85362593014707
4.655,-4.1945984045,12.86585,-0.148472681,149.93903,9.11233918,-8.47561,10.032518389885977,150.72849358510652
4.66,-4.20901418,10.12195,-0.047856451999999994,159.69513,9.1410726645,-11.46342,10.063662358461169,160.4256787911954
4.665,-4.1324242435,6.15854,-0.1005181625,170.18294,9.121949697,-15.18293,10.014839005388819,170.96982788012656
4.670000000000001,-4.371804569999999,2.68293,-0.10532342099999999,181.82927,9.007015759,-18.96342,10.012497246149852,182.83515209120537
4.675000000000001,-4.2856041165,-1.64634,-0.12454445499999998,194.57318,9.064482728,-23.47561,10.027300787891193,195.99116581004387
4.680000000000001,-4.3478763439999994,-7.80488,0.1579851315,208.35367,9.073995178499999,-28.41463,10.06311962086962,210.42708749664385
4.6850000000000005,-4.5585231859999995,-14.02439,0.0383440015,223.59756,8.939938273,-32.9878,10.03514325880806,226.45252769988173
4.69,-4.864980998499999,-20.85366,0.1579851315,240.24391,8.623869943499999,-37.9878,9.902733573107165,244.1210445175174
4.695,-4.965597227499999,-28.65854,0.5937926575,259.02438,8.5616957825,-43.04878,9.915259967239127,264.13659119630586
4.7,-5.291178007499999,-33.41463,0.8858346944999999,276.21951,8.7580249155,-48.35366,10.270553453127555,282.4036678906147
4.705,-6.4020753195,-34.7561,0.6991160785,291.40244,8.8298095935,-52.80488,10.928900637540488,298.18068998004884
4.710000000000001,-7.331059273999999,-36.28049,0.40226878299999996,306.70734,8.868153594999999,-56.58537,11.513053393309226,313.9865768827588
4.715000000000001,-8.671824461999998,-37.2561,0.38304774899999994,320.73172,9.232078376499999,-60.48781,12.671958657902668,328.5051420601578
4.720000000000001,-11.080337702,-35.85366,0.17720616549999998,332.98782,10.280703461,-61.95122,15.116155240949043,340.5940793132441
4.7250000000000005,-13.7235240765,-31.40244,0.5745716235,337.92685,12.741976478,-60.06098,18.735613419226816,344.6563368160181
4.729,-14.6669238065,-22.62195,-0.019122967499999997,332.2561,13.8480685315,-54.93903,20.171465531455144,337.5265406251091
4.735,-14.298193766499999,-10.2439,-0.6225261419999999,321.89026,13.1776859375,-49.14634,19.454492808840794,325.78158282117977
4.74,-13.6995958505,6.21951,-0.8763222439999999,312.98782,12.607821505999999,-41.34146,18.63877759590264,315.76759505675074
4.745,-13.148952452999998,24.26829,-1.5993665485,305.73172,11.750720295999999,-35.42683,17.70684476247933,308.73272388512913
4.75,-11.477801226499999,38.04878,-1.072651377,301.03659,10.251969976499998,-30.06098,15.427034399737439,304.9170390399279
4.755000000000001,-9.998173874499999,51.95122,-0.40226878299999996,301.34146,9.596003157999998,-23.10976,13.863930813692651,306.6588752697003
4.760000000000001,-9.562464414999999,63.71951,-0.2346731345,304.51221,9.9024609705,-18.10976,13.767880390258812,311.63412104739393
4.765000000000001,-10.0795690695,70.0,0.8571012100000001,306.52438,10.7595621805,-17.56098,14.76822648211526,314.90567405644634
4.769,-11.856043716999999,64.5122,1.5418995795,305.67075,11.7555255545,-22.86585,16.76709897373961,313.2399694333802
4.775,-12.804150639,54.02439,2.4803959845,297.98782,13.1633682285,-29.20732,18.530323821919872,304.2506255125976
4.78,-13.939074243499999,44.32927,1.2641752515,283.84146,15.07870504,-36.82927,20.573363252410424,289.6333090692391
4.785,-14.7865649365,30.12195,-0.023928225999999997,263.41464,14.2885832495,-47.62195,20.56226365114558,269.3741905972705
4.79,-13.474533232999999,14.26829,0.565059173,247.68294,10.8170291495,-58.10976,17.28844866774765,254.8080985248022
4.795000000000001,-11.262349125999998,5.18293,0.751777789,243.65854,8.628675202,-64.93903,14.207734281776121,252.21701864794412
4.800000000000001,-9.543243381,-0.06098,0.9816456649999998,246.09756,8.21208871,-70.12196,12.628361866114032,255.89275493994666
4.805000000000001,-7.6471276034999995,-0.54878,1.292908736,247.43903,9.524120413499999,-72.92683,12.28246893888538,257.9625888780739
4.8100000000000005,-6.105228024,2.56098,1.398232157,245.24391,10.888813827499998,-73.47561,12.561653114135057,256.0269502914109
4.815,-6.325485383,6.89024,1.1731695395,241.64635,11.999711139499999,-73.29269,13.615475002011411,252.61087126847136
4.82,-6.071689281,11.89024,1.120507829,233.47562,12.74668367,-72.92683,14.163293864878511,244.88888393614542
4.825,-5.037381905499999,17.19512,1.0486250844999998,219.63416,12.315779468999999,-71.95122,13.347406300804037,231.75809468108855
4.83,-3.5577545534999997,17.62195,1.5610225469999999,202.01221,10.687679435999998,-70.60976,11.371934777419785,214.72122465686573
4.835000000000001,-0.2825295865,13.23171,1.9010191024999998,185.0,9.193734375,-70.73171,9.392467639197614,198.50202253137925
4.840000000000001,-0.2393803265,18.65854,-0.19152387449999997,167.68294,10.266385752,-70.36585,10.270962016485473,182.8033433178882
4.845000000000001,-15.126561492,22.0122,0.9672298894999999,139.87805,14.791370194999999,-66.46342,21.17859835956888,156.42183996724657
4.8500000000000005,-16.7067070065,22.68293,4.5825494785,83.29269,21.3419181955,-58.78049,27.488020863411588,104.43818040094867
4.854,-11.602345681500001,34.69512,4.175475436999999,19.26829,22.4959647675,-44.57317,25.65379993799385,59.68069901724844
4.86,-8.0876423215,35.36586,3.0645781249999997,-32.5,19.124928829999998,-32.2561,20.989628394931422,57.85715202764132
4.865,-5.252834006,27.37805,3.620026781,-69.81708,15.380357594,-21.58537,16.65089363094548,78.03787849221557
4.87,-2.6288686654999998,14.57317,4.639918381,-95.12196,12.100327368499999,-12.92683,13.22337761192879,97.09617650525381
4.875,-0.545838139,-0.06098,4.639918381,-110.42683,9.188929116499999,-6.76829,10.308404346182298,110.63407364792005
4.880000000000001,0.7901217905,-14.87805,3.8450893985,-117.07317,7.091580881,-2.92683,8.1055243086456,118.05104760018142
4.885000000000001,1.436478092,-30.79268,3.040649899,-117.2561,5.8083807284999995,-1.03659,6.71165462492632,121.23636685260945
4.890000000000001,1.5993665485,-45.91463,2.197866398,-114.39024,5.0709206485000005,0.42683,5.753505564723299,123.26176389758261
4.894,1.5083608364999999,-57.43903,1.446088609,-110.0,4.639918381,2.43902,5.088729434790987,124.11764977593357
4.9,1.4030374155,-63.29268,0.6512596264999999,-105.48781,4.41495383,5.42683,4.67808405348103,123.13850691001332
4.905,1.1348255379999999,-63.96342,-0.1005181625,-102.37805,4.510666734,9.08537,4.652316335751857,121.05836678204362
4.91,0.6081103664999999,-60.06098,-0.7565830474999999,-101.21951,4.903325,13.59756,4.9984809873834815,118.48039568280527
4.915,-0.18191335749999998,-52.43903,-1.2641752515,-102.92683,5.5353635924999995,18.59756,5.68079938365337,117.00279244164815
4.920000000000001,-0.9911581154999999,-42.37805,-1.5466067714999998,-107.5,6.224967220499999,24.02439,6.490346971608733,118.02254207004101
4.925000000000001,-1.709495228,-32.07317,-1.5370943209999999,-114.45123,6.674994389,28.59756,7.059786326751449,122.25216857101309
4.930000000000001,-2.0781272014999996,-23.35366,-1.331154671,-122.98781,6.948011525,32.07317,7.373292993993401,129.2288012706169
4.9350000000000005,-2.2169893655,-17.37805,-1.029502117,-131.95122,7.086873688999999,34.14634,7.4965788957022275,137.40121402915804
4.94,-2.327118045,-14.45122,-0.7996342409999999,-140.85367,7.1347301409999995,35.18293,7.547136377437349,145.89870690085706
4.945,-2.4564677584999997,-14.63415,-0.6895055615,-149.2683,7.206514818999999,35.54878,7.64483535495409,154.13922113012282
4.95,-2.6671146004999997,-16.82927,-0.6320385924999999,-157.5,7.273592305,35.06098,7.772909242617263,162.23053549592106
4.955,-2.9065929935,-19.93902,-0.7087265955,-165.18294,7.2304430449999995,34.08537,7.824952577749029,169.83751244539854
4.960000000000001,-3.1172398354999995,-22.86585,-0.8571012100000001,-172.74391,7.187391851499999,32.92683,7.881015689821973,177.3343781452415
4.965000000000001,-3.3135689685,-25.48781,-1.1060920534999998,-179.51221,7.0963861395,31.64634,7.909606512381618,184.05366834995655
4.970000000000001,-3.5769755874999998,-26.52439,-1.379011123,-185.42683,7.129924882499999,30.42683,8.095199494825394,189.76945099928466
4.9750000000000005,-3.8690176244999996,-25.97561,-1.632807225,-191.40245,7.139535399499999,29.45122,8.283014097139848,195.38936649767558
4.979,-4.0940802419999995,-23.59756,-1.8004028735,-197.07318,7.1059966564999995,28.59756,8.396316574369441,200.53055515611481
4.985,-4.2520653735,-19.7561,-1.9488755544999998,-202.2561,7.091580881,27.86585,8.49521602192729,205.12030389662186
4.99,-4.319142859499999,-15.12195,-2.0159530405,-206.82927,7.1059966564999995,27.13415,8.556532602898221,209.14894787389656
4.995,-4.477127991,-10.0,-2.0877377184999997,-210.67073,7.144340657999999,26.40244,8.685903940672791,212.5540997409518
5.0,-4.7214116425,-4.93902,-2.164327655,-214.2683,7.139535399499999,25.42683,8.828873530459362,215.8282233335096
5.005000000000001,-4.951181451999999,-0.18293,-2.1355941704999997,-217.31708,7.144340657999999,24.39024,8.950785645364002,218.68157336723388
5.010000000000001,-5.214588071,4.14634,-2.035076008,-219.7561,7.19219711,23.10976,9.11378968254398,221.00677960158416
5.015000000000001,-5.516240625,7.56098,-1.9249473284999998,-221.95122,7.216125336,21.82927,9.284761586344628,223.1502397641143
5.019,-5.8130879205,10.42683,-1.7956956814999998,-223.65854,7.297520531,20.4878,9.501069416249273,224.83685473609634
5.025,-6.220161961999999,12.86585,-1.766962197,-224.63416,7.5465113745,19.5122,9.937927558832204,225.84676637926015
5.03,-6.603209711,15.12195,-1.6568335174999997,-225.54878,7.690178797,18.71951,10.270653617077372,226.8288905451221
5.035,-6.962329234,16.76829,-1.4987503194999998,-226.64635,7.7859897675,18.23171,10.55186796460357,227.9959183129617
5.04,-7.302325789499999,17.56098,-1.316836962,-227.43903,7.958292608,18.04878,10.88082913913428,228.82888551358567
5.045000000000001,-7.512972631499999,17.7439,-1.1492413135,-228.29269,8.101960030499999,17.9878,11.108882468283781,229.6866544740597
