time_s,acc_x_mps2,acc_y_mps2,acc_z_mps2,gyr_x_radps,gyr_y_radps,gyr_z_radps,acc_norm_mps2,gyr_norm_radps
0.0,-5.223626348343617,0.1854551900752397,8.34882896837967,0.0001600655629055955,-0.003190269170504345,0.0005626022665544497,9.85005639567059,0.003243448731679132
0.0048828125,-5.161235579969807,0.1228274095261115,8.372753493191407,0.0002180025554967264,0.0012037297129302408,-0.0058611124970651355,9.83648516199898,0.0059874143032904725
0.009765625,-5.190074310631302,0.14211127662389372,8.34436715100504,0.00527331031130797,-0.004359233206009966,0.0005525517502949156,9.827793756260386,0.006864111684732472
0.0146484375,-5.141932898205901,0.1468376658893266,8.382191206674364,0.002271023400012367,5.4877123436426916e-05,0.0016169054236369197,9.834742734562251,0.002788358285993189
0.01953125,-5.170760183343081,0.17093041125999106,8.353794383288763,0.006278154739232445,-0.005464117083634492,-0.0005164994761628059,9.826080534852467,0.008338979202653618
0.0244140625,-5.190103203355826,0.12768559130376064,8.349101673992992,-0.0018423279643837657,0.00012666526488629403,-0.001577720316901094,9.831631280432743,0.0024288717166704448
0.029296875,-5.185267342502336,0.12768133029677356,8.37263806111893,0.007434936612525427,0.0021725770806927955,-0.0005382983244291094,9.849079552822435,0.00776454368845368
0.0341796875,-5.170786979183987,0.1276637997832435,8.419731825545458,0.0032283475521414084,-0.003221106743167562,-0.0037215214565547976,9.881559595730666,0.005886210879665687
0.0390625,-5.19012176621097,0.10845482570480042,8.372658995741208,0.007400595847601638,-1.702986700648002e-05,0.0005360173671043949,9.851423504056747,0.007420001585831797
0.0439453125,-5.156237808293489,0.2045683821670405,8.367893223588865,0.006333713656520403,-0.002185117552174104,-0.0005253027464175934,9.831087099606133,0.006720610863233064
0.048828125,-5.204485577402539,0.12772021279053877,8.38666333859111,0.005297570769529241,-0.003273040921983384,0.0026864687914164883,9.871124785606474,0.006781899992067359
0.0537109375,-5.165879656047262,0.18054770479282367,8.396122125577271,0.004400394659604912,0.005511448638104569,-0.004814509693051912,9.859704703594177,0.008539264771350924
0.05859375,-5.209292545531506,0.14215015911765888,8.358392428477217,0.00018420966153408742,-0.00210419696365727,0.0026972257270648833,9.849855810167607,0.003425872835352717
0.0634765625,-5.1804292503389755,0.14690498639320537,8.35850788832588,0.004323955701044152,2.4611097723213482e-05,0.0016125001447521682,9.834789393372935,0.004614905776670758
0.068359375,-5.185295119571925,0.12286960352834995,8.358539304147389,-0.00178111340669174,0.0033987115253231188,0.0005512716285574529,9.837050458115193,0.003876532652811484
0.0732421875,-5.180399241959516,0.17094463026504786,8.334940085378435,-0.0038368560639190676,0.0034323003258111186,-0.0005120550001602001,9.815140579714559,0.005173427326732704
0.078125,-5.190070540265281,0.1276912882948433,8.37732015033454,-0.002940269847447682,-0.0042339152659536155,-0.000496113323398335,9.85558877892321,0.00517854744930839
0.0830078125,-5.166009885008228,0.13726305284431428,8.372701059419065,0.005328998738184962,-0.0010800124657335765,0.0005435998428784147,9.83913727458236,0.0054644446439591895
0.087890625,-5.165998997311379,0.13726495184134185,8.38210721819958,0.003204174161623337,-0.004307202613017253,-0.005855452233338216,9.847137082656038,0.007943868532679954
0.0927734375,-5.161255124053633,0.14205152863547527,8.316274615711386,0.005251772933786774,-0.005448965845476524,-0.000512981240957578,9.788725993523524,0.0075852157178816874
0.09765625,-5.194818607290264,0.18058656381393898,8.32074691428525,-0.005910890646380374,0.0023731744220391975,-0.0015725065831315261,9.810890942277709,0.006560744014582497
0.1025390625,-5.252477640184363,0.19031622034843015,8.339286387352027,0.006361055778119907,-0.001102372652924258,0.0026793943743299996,9.857405291182829,0.006989807600460772
0.107421875,-5.26220993647773,0.1374384753428646,8.348765858974792,0.0012000115442950589,-0.0021047120532661193,-0.0015795974942503688,9.869733234391527,0.002892225575131915
0.1123046875,-5.137317022599252,0.1275675078383695,8.255270978108973,0.0052810499895437815,-0.004370586950032084,0.0037603710580436946,9.724083431447532,0.00781868977348659
0.1171875,-5.185254781323084,0.1421041671213653,8.353794299960205,0.005339476440289872,2.3860499445673826e-05,-0.002664735409512982,9.833256833195946,0.005967528197047478
0.1220703125,-5.228447127733022,0.12777949776602524,8.457104578571732,0.002330251961259578,0.0033313479799815036,0.0026764165294869695,9.943621313206169,0.004867356469993957
0.126953125,-5.233434300687454,0.1373711313663359,8.283048688559076,0.00433731209325741,0.0011249194152581474,-0.0005255904506731989,9.798806099948354,0.004511536900766807
0.1318359375,-5.199653486915071,0.14213594011260208,8.377246726387549,0.0012581507019185706,0.00117065040803323,-0.0005201491273970226,9.8607738907365,0.0017955279672838415
0.13671875,-5.1949619552579485,0.11807209576498315,8.325586249265514,0.004238862396475512,-0.004333155747013458,-0.002650388836721033,9.814120293247624,0.0066157958047347075
0.1416015625,-5.1226857705811755,0.16122446871569449,8.363431406214234,0.0021724326274034384,-0.0054035269627316675,-0.0005066201312240746,9.808918784447046,0.005845872998529529
0.146484375,-5.142076804001054,0.07951621856451606,8.396447181634377,0.00635278901030394,-0.0010913094945907453,-0.0005280246808160325,9.846197335074915,0.006467433392465151
0.1513671875,-5.209313763097735,0.14695334039945848,8.330163470936437,-0.002905873694624572,-0.002044366857369548,-0.0015692400909999636,9.825994535881742,0.0038840767551406186
0.15625,-5.228443222940749,0.16142835269700825,8.3911880987135,-0.0028843918088988308,-0.0009546362620319313,-0.0005045768203769308,9.888109796951113,0.0030798773137400556
0.1611328125,-5.199601703141915,0.16617938197849966,8.372491241001132,-0.000776117171680821,0.0022939429196248643,-0.0005177506332926816,9.857082886886552,0.002476408225828257
0.166015625,-5.190070963666496,0.17095315227902202,8.287867311126554,0.002252447246898431,-0.0010384449691734994,0.0016218784977163846,9.780327507553533,0.0029635074515541255
0.1708984375,-5.180482149767066,0.11324758597559834,8.38209665367179,0.00015472246114529324,-0.0031827603950327103,-0.0015753873401958076,9.854428681119993,0.0035546797385729214
0.17578125,-5.214031956169511,0.17581941653036323,8.348891911127433,0.003292201894329595,4.697969020455466e-05,-0.0005220660453753888,9.844848289886189,0.0033336696537079056
0.1806640625,-5.223824134795543,0.12293122704114608,8.306637509457358,0.00019469598023097426,-0.0010003440865174649,-0.0005102765990715937,9.81344370704689,0.0011397267320321276
0.185546875,-5.185326667007535,0.13247786508897674,8.311487547846346,0.002268487258394495,5.850949471950626e-05,0.000550115695679348,9.797243912770718,0.002334970038587921
0.1904296875,-5.218807376862866,0.18064110129685657,8.367672757314583,0.0012793976921462303,0.002259967426308147,0.000545926187865375,9.86339338249168,0.0026537420042724936
0.1953125,-5.218896151920056,0.16620497149307195,8.320673407009698,0.003297663216497294,3.974596378617146e-05,0.0016160479094318389,9.82334500479309,0.0036725703909735465
0.2001953125,-5.161154903472127,0.16129653671214217,8.363263484817042,9.636148467439508e-05,-0.007577091501857042,0.004847782677712934,9.828922251542323,0.008995698864100355
0.205078125,-5.199711137937867,0.16135341273236936,8.287846293175718,-0.0007866760975732541,0.001189763322280423,0.0026929840323912666,9.785265812490838,0.003047385608066554
0.2099609375,-5.175665832997403,0.13246744407797506,8.349154163317708,-0.0007521340200209259,0.0033797803252668627,0.001617479316267551,9.824125390152686,0.0038216305380932842
0.21484375,-5.194890627400966,0.12289141852151698,8.377309641359123,0.003279219938202961,-0.0010529847839112142,0.0016176384128598845,9.85805801152606,0.0038051037296000516
0.2197265625,-5.214145295757737,0.1373445923532499,8.33016344316025,0.00430011264789502,-0.0010611362298293555,-0.0005212786783719042,9.828417863119407,0.0044596760356968015
0.224609375,-5.161160347320552,0.16129558721362838,8.358560405426783,0.00014394319027084127,-0.004287097856824712,0.0016335716547215323,9.824923635752949,0.004590041832829635
0.2294921875,-5.252497876521909,0.15666451692190578,8.391093629039485,0.00025609645116916516,0.002271960584939417,0.0016170529110330818,9.900693410314076,0.0028004018298987492
0.234375,-5.175555148120264,0.1949762151358482,8.316096351995894,0.00023129568791689666,0.0011851728958557895,-0.0005166812209115109,9.797032476795321,0.0013134275664697913
0.2392578125,-5.161079247421656,0.15650285041548034,8.4385232362604,0.003230927900182602,-0.003224846528986959,-0.0026534613861493098,9.892922043019512,0.005280093518062252
0.244140625,-5.199667029323005,0.1661679879963343,8.316054288318036,0.00018397054432012802,-0.002104550010663455,0.0026979553058247762,9.809225654572142,0.00342665124294683
0.2490234375,-5.185253665668149,0.15171812567307472,8.33496102000071,0.004292192684645484,-0.002168824793670732,0.003755896652562925,9.817405419555312,0.006101924179510794
0.25390625,-5.156487936346038,0.11319399799119452,8.339873890032713,0.0012366288314853814,8.096669717541653e-05,-0.0015854002745884985,9.80590012291135,0.002012287380961696
0.2587890625,-5.194857406482953,0.12770409478845438,8.396111477720922,-0.0029188954584889264,-0.0031443467738344407,0.0005694721217626117,9.874084248973853,0.004327951689792198
0.263671875,-5.2815736162292355,0.10380381594428847,8.306427552158494,0.003351311111705959,0.003323182472035474,0.0005402150012443689,9.843908460317534,0.004750437891127205
0.2685546875,-5.238189619469516,0.12777567629932024,8.348891772246501,-0.0038866139701864565,0.00014649300709406363,0.0016338679548987133,9.856924009936227,0.004218619780025322
0.2734375,-5.166060976527664,0.1660954335143048,8.269170425638,-0.003911394689136935,-0.0009402878326073895,-0.0004997318404128643,9.751664126418753,0.004053749071499192
0.2783203125,-5.223694463662046,0.16140889971380074,8.33947521559531,0.0022736243235364937,0.001169736316684282,-0.0047966766683310786,9.8417418963377,0.005435600948897797
0.283203125,-5.161194683893499,0.14686895239498154,8.358591849024476,0.001228858529832306,-0.0010265965241261453,0.002691569189114986,9.824742172332389,0.0031318586190124554
0.2880859375,-5.247763351904861,0.12780128928654239,8.386474427019266,0.006308340834529081,-0.004384671242969179,0.0037556001310372336,9.893851963830222,0.008551317929872262
0.29296875,-5.1948268402760265,0.1565507179361516,8.36312703479373,-0.002916355722341495,-0.0031482398757364336,0.0016387318988143763,9.846452550428316,0.00459368993844847
0.2978515625,-5.166132438810898,0.11320726749773756,8.316316512732126,0.0033533155995168497,0.0033189548020706194,0.0016079141635330356,9.790958104327153,0.004984533523354097
0.302734375,-5.228622446537532,0.11813515526187487,8.32543931804297,0.003236725438266964,-0.003231921736681807,-0.0005129162011528338,9.8318557984625,0.0046026940702338535
0.3076171875,-5.204538900231846,0.13732467635711038,8.320799264729034,0.0012608151680169385,0.0011668792332707877,0.0005498543276266656,9.81538504770334,0.0018037743247285604
0.3125,-5.233408754927735,0.12295494103134066,8.334814005449608,0.001252907440714724,0.0011779712918538478,-0.002656296638873352,9.842398570425669,0.0031643807060971678
0.3173828125,-5.209293661186441,0.13253620056594942,8.377225708436713,0.0022021063376741336,-0.0032059093029191453,-0.003717786437125138,9.86570914141658,0.005380433325768449
0.322265625,-5.175574268802874,0.17093847026103326,8.349070313723857,0.0012474137690338181,6.637715763618844e-05,0.002688994169322862,9.824599944833102,0.002964985106351019
0.3271484375,-5.146769874714328,0.1372279683446042,8.37748809950792,0.0023164256010804254,0.0022302748351500953,0.004817735583095321,9.83312658903361,0.00579228189526955
0.33203125,-5.19957559955473,0.15657017091935913,8.414839917911918,0.0022605022342670517,6.966157006436729e-05,-0.0026583169354311613,9.892908140581843,0.0034901822323010995
0.3369140625,-5.209190651467597,0.17581610502188993,8.37713137764363,0.0001786590222770703,-0.0020971101640463842,0.0005592098793829841,9.86625099338264,0.0021777295000957263
0.341796875,-5.21881128165514,0.14699224636587352,8.433589237172814,-0.0008632909620746524,-0.0031781568895137145,0.0016322208624878654,9.918821771530114,0.0036756084453466883
0.3466796875,-5.204475805360626,0.11810815323585686,8.41490277733112,-0.0008102567625042518,0.00010466524955388307,0.0005558016380538322,9.895004128163864,0.00098812261208383
0.3515625,-5.194929715568619,0.1613396567402445,8.264351886399078,0.004376839788801502,0.0033070453668596713,0.0005376700018599445,9.762829371486676,0.005512020013226011
0.3564453125,-5.156359804268693,0.18531957609631847,8.30209203692218,-0.000920313711181966,-0.005340156147272162,-0.005840960588158153,9.774820815027201,0.007967500586548772
0.361328125,-5.132322174486523,0.13720474083999146,8.396363387592897,0.005368736539919293,0.0011024411262867417,0.0016060998281720114,9.841670294220668,0.005711240244469421
0.3662109375,-5.199820149332602,0.11326557950206038,8.292654184558293,0.0002743562733957244,0.0033646046007356593,0.0016164020648905943,9.788721678624714,0.003742805247327963
0.37109375,-5.1372293631969965,0.1323896790904447,8.321103608373353,0.002369316683229949,0.005512838704178896,0.0037420351547067807,9.780052035572567,0.007071624935104096
0.3759765625,-5.195057847645965,0.08921407863512058,8.302133739509614,-0.002918914161456776,-0.00314450156756363,0.0005717645690875028,9.79397824282444,0.004328378993668051
0.380859375,-5.161275360391179,0.10839982520895088,8.368081857398844,0.0002770107084945841,0.0033611243684327544,0.002683230975303297,9.83236023750219,0.004309712336052168
0.3857421875,-5.180468472932881,0.1372843813518995,8.344419612553569,0.0021805399144971716,-0.004295687543387814,-0.00478324391575648,9.822700202631829,0.006788748643656941
0.390625,-5.190023084685614,0.16134773921393658,8.349028305598372,0.002260298599178802,6.932391221966814e-05,-0.0026569583737756264,9.832021478831393,0.0034890089369664155
0.3955078125,-5.228586994309648,0.14217574863223117,8.306574594485783,0.0012368807561846434,8.105563276841124e-05,-0.001584380423513424,9.816186499568953,0.002011642450097919
0.400390625,-5.151672177403843,0.1276068768177165,8.31634803965838,0.009495539911559768,0.002130997239679818,0.0026636669660793444,9.78353997565185,0.010089675374050932
0.4052734375,-5.190088968694172,0.15652936595591652,8.302007992895023,-0.0008583103006907124,-0.0031860848957461535,0.003772282715182617,9.792081579493725,0.005011781162265477
0.41015625,-5.214121846881636,0.15176932817486913,8.32072584078204,-0.001879510172752705,-0.0020595938551826102,-0.0015716150554901899,9.820620096539782,0.0032006966773548387
0.4150390625,-5.1804733589538365,0.14209041112924048,8.330299893183563,-0.003924231274647074,-0.002040106822956264,0.0016392970869132026,9.810779286995473,0.0047168762846987
0.419921875,-5.180450467905205,0.151708167675005,8.3302789307851,0.0001970822178280688,-0.0010042431612433797,0.0005574638038229585,9.810893409024517,0.001165380461506408
0.4248046875,-5.165986436132128,0.15168778866593355,8.363263457040855,-0.00282085406152906,0.002313382766827238,0.002693603237256363,9.831307171246682,0.004534804942007561
0.4296875,-5.219032382556914,0.11811239077019406,8.30196590144098,-0.0018313115003773099,0.00011228246521573611,0.002698368379260835,9.80687959422975,0.003263050884311163
0.4345703125,-5.218868932677935,0.16620971898564085,8.344188803960987,-0.0008930200869857465,-0.004257283692258914,-0.002638003473536339,9.84325684940224,0.0050873383648548
0.439453125,-5.20925765113109,0.16138377321216044,8.348944344899776,0.00023170208467326175,0.001185669948982276,-0.0005169935899019946,9.842117743268364,0.0013140705673445852
0.4443359375,-5.247762794077393,0.1326082685623971,8.37705778703952,-0.003854795111862381,0.002339969587861614,-0.0005095952066908617,9.885934273663443,0.004538126298511056
0.44921875,-5.252644994855615,0.10857003720200034,8.362979964690254,0.004292359046329458,-0.0010498379978599764,-0.0037276978539294296,9.876310079415813,0.005781196873878891
0.4541015625,-5.16604310592624,0.13245037657737688,8.353899223057264,-0.0008238062355160721,-0.000996132050967038,0.0026969569598334136,9.823094049409294,0.0029907378052635857
0.458984375,-5.209342097994792,0.13733463435518012,8.325481353944642,0.004342693692244035,0.0011177575197998785,0.001610730579891275,9.821901326658407,0.004764747986905729
0.4638671875,-5.1853261091800675,0.13728484436483143,8.302070907866598,0.001266109210642232,0.0011595015007320995,0.002687551072664485,9.789322517226699,0.003189107560376901
0.46875,-5.233307976518762,0.14700692838386226,8.372386234575513,0.007315458271155088,-0.004374892984938778,-0.003727801518015342,9.874511363859849,0.009303339320071874
0.4736328125,-5.209228758406566,0.1758094585322935,8.344209821911823,0.00014094888335263258,-0.0031651032890890334,-0.0069182538518671975,9.838333739775713,0.007609203754480221
0.478515625,-5.233340081781839,0.1518082106686343,8.33475111825422,0.0022206769108034288,-0.002112987664621654,-0.0037195476073522194,9.84271153431059,0.004819871078813038
0.4833984375,-5.247870689817193,0.09413439388379755,8.363032398462597,0.0001737595985683717,-0.00208930096104749,-0.0015771642706151345,9.873667958711662,0.0026235125386461517
0.48828125,-5.214060291066567,0.16620071048608487,8.344209794135637,-0.007995141693204954,0.00021048499003340754,0.0005752294782022062,9.84072581081255,0.008018571168110085
0.4931640625,-5.204488232113625,0.15175415967129854,8.334877059302114,0.006341856495003937,-0.0010772223548393305,-0.004801510350255966,9.827507449850517,0.008027082499177668
0.498046875,-5.156357149557606,0.16128562921555864,8.353878316211173,-0.00485240571029237,0.0034330861007454195,0.0037648304623228803,9.818417134653044,0.00703604077322209
0.5029296875,-5.170657731451705,0.20940333644007686,8.36311669247543,0.0012472510267051936,6.619107228931278e-05,0.0026884294521254504,9.834697348932233,0.0029644003273383165
0.5078125,-5.19969969241355,0.16616229100525165,8.287835811976487,-0.0017922334920697585,0.0034126697475715478,-0.003722148416179039,9.785331330339185,0.0053584330291747365
0.5126953125,-5.213937179436429,0.19506347510851632,8.391177700842828,-0.0018423833138415393,0.00012658069951370832,-0.001578888005334005,9.881045181434645,0.0024296679365704904
0.517578125,-5.218938721478767,0.12774249079663774,8.363084971115871,0.00022648160581545772,0.0011931676177192106,-0.0026544531150202943,9.85874382244561,0.0029190861963271017
0.5224609375,-5.22377248544864,0.09890582564701025,8.400751503258675,0.005406156112665175,0.004407574716001581,-0.0058823207384409975,9.892937236310562,0.009124414285943865
0.52734375,-5.194884067897607,0.13250632657174022,8.363179440789885,-0.002884528212793399,-0.0009547631885936125,-0.0005040047376210852,9.846174321244193,0.0030799507353590936
0.5322265625,-5.170946524270692,0.11321532649877974,8.31159244316722,0.000154529938268953,-0.003183089566285733,-0.0015738973948547022,9.789487964563612,0.0035543060783152767
0.537109375,-5.185169776631915,0.1709602852542003,8.36784065093559,0.007301918218891282,-0.005475572499765671,-0.0015880052220998155,9.845606644137344,0.00926399829776446
0.5419921875,-5.223921700665964,0.07965227208371936,8.3114349196407,0.0012267041341911368,-0.0010224722587016146,0.001624693065163528,9.817110208333187,0.0022781308365953145
0.546875,-5.180447120940399,0.18055004333013333,8.273779090906617,0.0053418573403266455,1.9702331310344853e-05,-0.0015945279104716819,9.763454877046838,0.005574795716753567
0.5517578125,-5.209208098667804,0.16619929797463914,8.38185541943235,0.0022631803081972625,6.592745652472099e-05,-0.0015888836392912516,9.87010493835506,0.0027660229131630646
0.556640625,-5.2285340948815575,0.17583314904983818,8.282985829139873,0.006318244337045042,-0.0032815789543549695,0.000548628417779217,9.796751518915627,0.007140725808841992
0.5615234375,-5.185336015648232,0.0988280606594799,8.37270094831432,0.005246760346365136,-0.005441170854536692,-0.0026512232629527445,9.848837380658486,0.008010232155841112
0.56640625,-5.185237891950345,0.14691399489276133,8.35848689815123,-0.0018505882881107818,0.00013737161357416065,-0.004784179603330793,9.837305471752861,0.0051314639674497516
0.5712890625,-5.165984897075977,0.1180398832334643,8.433883016289343,-0.002876338610893485,-0.0009653589547014311,0.0027004517753116937,9.890991664302659,0.0040617338054977185
0.576171875,-5.21407508355569,0.13254995655807428,8.400720115213353,0.0012954957949538179,0.003357013092205368,-0.000525987639413964,9.88818724145584,0.0036365518355713764
0.5810546875,-5.132284490948769,0.18047325131376662,8.339832104116718,0.0011564105807116407,-0.004284616253129961,-0.003712412705273653,9.794167356918551,0.005785951085348415
0.5859375,-5.185208999225821,0.16133968021289438,8.353752375163278,0.003337439030609318,0.0022222637140138124,0.0026783689339509235,9.833493865539845,0.004821889198645105
0.5908203125,-5.204353117131704,0.190232781842467,8.372417844830325,0.0032205053089206454,-0.004328939588599156,0.000556913998980403,9.859962497267384,0.005424161281598053
0.595703125,-5.156481934670147,0.11800192676556304,8.335160329443225,0.003300236739497041,3.614084905052753e-05,0.002684318623229848,9.801945118945731,0.004254225566271109
0.6005859375,-5.156419821027611,0.13724028835263347,8.349227642817073,0.0034008106221720957,0.00660891087258544,-0.0016073258993056067,9.81412769934314,0.0076043877042293925
0.60546875,-5.228494448886437,0.14219189010696542,8.386526944120169,-0.003764723685968038,0.007808800903988086,-0.001592359300535907,9.883886225574535,0.008813973231852769
0.6103515625,-5.204578680653218,0.12289709203994979,8.316127628936469,-0.0018712877575072437,-0.0020703037788336516,0.0016347039884116049,9.811254847322148,0.0032342128467029185
0.615234375,-5.1851512137767735,0.19019105085316051,8.344283329187375,0.0032597572064007774,-0.0010283375398900756,-0.005863013096677295,9.825936597765615,0.00678663522759537
0.6201171875,-5.199606031335404,0.17579239103169533,8.34895488165138,0.0012770171866777107,0.001145143187434775,0.006961198784998143,9.837268597618678,0.007169408227954254
0.625,-5.233357528982046,0.14219140362138358,8.339475160042939,-0.0018366990818077954,0.00011957380100343878,0.0005600872754688722,9.846577850521982,0.0019239176612168602
0.6298828125,-5.223797473380889,0.11812899525786023,8.339569546388395,-0.0008447342776430625,-0.002085270568854246,0.0016317534233512329,9.841261845996678,0.0027793072121975516
0.634765625,-5.238247962746031,0.09411732638319939,8.367777458202152,-0.002932162491089857,-0.003126035457780326,-0.004772949910132351,9.87257815265772,0.006414883116790714
0.6396484375,-5.2283135518072505,0.19990602536966295,8.424025804851455,-0.003934420381008975,-0.0031436787499881805,0.004846046445647255,9.91662421269424,0.00698903040278095
0.64453125,-5.218922947760962,0.12293836001632434,8.386610849266393,-0.006915442122127285,0.0034785428843159237,-0.0005049120254546676,9.878639183210522,0.007757482613320252
0.6494140625,-5.1515871727126745,0.15646299495055152,8.330394390633764,0.00022589221082690487,0.0011925197622778803,-0.002654329029855177,9.795856357172104,0.0029186629255649726
0.654296875,-5.180526816209396,0.10362603143577867,8.363305298509221,-0.0018712628296712185,-0.002070137064530875,0.0016336268066085668,9.838367342396207,0.0032335473689005623
0.6591796875,-5.228492217576567,0.16141980721038426,8.34886038420118,-0.0008475910203839508,-0.002081850503344316,0.000562622742562785,9.85224121397271,0.0023171224409942945
0.6640625,-5.24772078234615,0.1662637699829766,8.344062862913093,0.004401323753252587,0.00439348118603954,0.002670894823463023,9.858478691508243,0.006768161262191558
0.6689453125,-5.214182844869238,0.14214492513950816,8.287825247448698,-0.0027993577499277112,0.0034028628617223896,0.0037615915128658283,9.792648020414072,0.005793569726639532
0.673828125,-5.141924665220139,0.170873511767114,8.339811086165884,-0.0038955617649209994,0.00015650718281618923,-0.0015729040976920083,9.799032399821844,0.004204036543980533
0.6787109375,-5.175677836349187,0.12285158652923804,8.358581284496687,-0.002892781996154335,-0.0009440264685022136,-0.0037100787318364056,9.832019867124314,0.004798339071692647
0.68359375,-5.214072294418351,0.15658485293734786,8.353636915314615,0.008384257747625336,-0.0022113734604742776,-0.0015982152655398525,9.848569359074318,0.008817042735254835
0.6884765625,-5.2429965875984825,0.14220562262644038,8.320620862132609,0.0012156851783742477,-0.0010082813325646887,-0.002650566451829282,9.835749447196807,0.0030854536480200315
0.693359375,-5.1804538148700106,0.12286629201987667,8.386778770663586,0.0022183282236669694,-0.0032275761725440587,0.0026940967257836077,9.858511855334424,0.004753565527619196
0.6982421875,-5.185243335798768,0.14691304539424754,8.353783818760972,0.005337207687936259,-0.0010908419718510536,0.0037501910778605387,9.83331256418432,0.00661359624048691
0.703125,-5.190137539928774,0.1132589564851138,8.349133117590686,0.004310521458164904,4.281879648645858e-05,-0.0037305518991138124,9.831499330715106,0.005700828550536694
0.7080078125,-5.194730390060542,0.19021571434186887,8.377162904569882,0.00229246235519414,0.0011443635012314023,0.0026830655745713225,9.858918002149265,0.0037099585375557228
0.712890625,-5.204457665906698,0.18060078281899578,8.301892616374918,0.004339716160402221,0.0011209968716985122,0.0005422622592170461,9.800021288384542,0.004514844260546007
0.7177734375,-5.132414719909735,0.1371885993652572,8.316411037958511,0.0022178433757993805,-0.0032281897278868808,0.002695255756690856,9.773596785279208,0.0047544128715107156
0.72265625,-5.1420096699113085,0.142017393634279,8.325764735190498,0.006299356857408923,-0.004374749746897862,0.0005500718443674292,9.786663926553205,0.007689142422854028
0.7275390625,-5.141975333338361,0.15644402845292582,8.325733291592803,-0.0008295514392432768,-0.000989303768751483,0.0005598770223512731,9.786839117173402,0.0014072454716123296
0.732421875,-5.175665832997403,0.13246744407797506,8.349154163317708,0.002218187321000165,-0.0032278041243669607,0.0026948375514664223,9.824125390152686,0.004754074450944137
0.7373046875,-5.146644531774319,0.1853186500704546,8.38678944629612,0.0012762553379403977,0.002263234451205393,-0.0005236821206465776,9.841774746203575,0.0026505284062294508
0.7421875,-5.194805064882329,0.15655451593020672,8.38193935235476,0.004297291945202064,-0.0010575409634249772,-0.0015913551572778206,9.862424462835627,0.0047029269809571875
0.7470703125,-5.194977728975753,0.12287622654529654,8.302060371114994,0.0032260398447258856,-0.004336092024063957,0.00269620154811543,9.794238029435578,0.006039745848044446
0.751953125,-5.223502678886011,0.2191249339735259,8.386380235107115,0.0032069128955585996,-0.004310939859994641,-0.004786956670611797,9.882528493296315,0.007196071634058783
0.7568359375,-5.23333575358835,0.1421952016154387,8.358287477603971,0.002273798528206982,0.0011699695338674944,-0.004796916941856377,9.862504354545043,0.005435936037530528
0.76171875,-5.194928176512468,0.12769175130777524,8.33497144564757,0.004286905147754226,-0.0021614368841432305,0.0016186916008402886,9.822185751768062,0.005066510401509838
0.7666015625,-5.132433840592345,0.11315085449044228,8.349384999686476,0.0033985172883029113,0.005494243631133108,0.004807613758862902,9.80137286898723,0.00805293629004653
0.771484375,-5.132330830873501,0.15643075894638278,8.349290668893394,-0.002940792253666873,-0.004234493751014948,-0.0004960309094272706,9.801833757698072,0.005179309130542313
0.7763671875,-5.223665570937522,0.1758345850339338,8.33474069260736,-0.0018849715988165418,-0.002052420712008377,-0.0037094098069950024,9.837962299749735,0.00463953336270542
0.78125,-5.175625494748563,0.15170200767099037,8.344409159130525,0.003214992120309595,-0.0043217851436114,-0.0015798336650626693,9.820350145285254,0.005613365796958038
0.7861328125,-5.209299662862333,0.12772827179158094,8.381939269026201,0.0073716453713300375,-0.0022139417082765464,0.0037474018498554543,9.869651635116407,0.00856070756378222
0.791015625,-5.209229874061501,0.16619549998058403,8.363043101871318,0.00019725881422235402,-0.0010040419526731997,0.0005568411910307262,9.854145663059079,0.0011649392235411847
0.7958984375,-5.185374680414669,0.09401443489402872,8.349196032562261,0.0010723453154202792,-0.009759964670941831,-0.0004919927098261342,9.828836333992308,0.009831016818216647
0.80078125,-5.1900262972241675,0.1805747068188417,8.306658666289124,-0.0019196986469308156,-0.004242477474622533,-0.0026348602120396095,9.796405380998548,0.005350359460325727
0.8056640625,-5.291119994996207,0.15190301968411293,8.268656124694818,0.0012502865884854075,0.00118145504593229,-0.003723348569335208,9.817825596194451,0.004101509130512315
0.810546875,-5.137175482540222,0.12759219479972775,8.37755104225568,0.0031514689640846907,-0.008708406213206281,0.0027050873958806396,9.828032009114816,0.009648087542365642
0.8154296875,-5.190100972045956,0.1469135084071795,8.311435114074003,0.004286750987385532,-0.0021616632519442683,0.0016190662109986018,9.799932924997355,0.005066596237934741
0.8203125,-5.242924701914033,0.15183192465882892,8.36292761424647,0.001189444559732875,-0.0032087117508381524,0.0016287294641655508,9.87167010411167,0.0037899035776766113
0.8251953125,-5.223739687931842,0.14698036589812635,8.33010050041249,-0.003964360603042334,-0.003104167493388644,-0.0069073439737973264,9.833597200526683,0.008547713822439258
0.830078125,-5.180495134347534,0.14208661313518536,8.311487575622532,-0.0008877685939519243,-0.004264683503778354,-0.0004999802602960051,9.794822313975809,0.004384705089797061
0.8349609375,-5.194886299207477,0.11327840946832134,8.400846000708874,0.005347913533571403,1.3456331401572579e-05,0.0005405692586204593,9.877949644909693,0.005375181425661504
0.83984375,-5.252577860765869,0.17107121227176328,8.292297518246375,0.0032420328116677406,-0.003239423963315437,0.0016250615938076466,9.817384461973102,0.004862660747954887
0.8447265625,-5.194840940511429,0.17577578654402914,8.311351236703965,-0.0008003353958085279,0.0012077542637490928,-0.0026511641693092954,9.802847999648334,0.0030212379184727496
0.849609375,-5.242953594638557,0.13740623933869586,8.36766213723442,0.0012103489709194796,-0.0010008668393473735,-0.00478897950417367,9.875485431767347,0.005039940848155515
0.8544921875,-5.21412352036404,0.137348390347305,8.348975760721284,-0.005022442238439144,-0.0052822432121140146,-0.004762302544464757,9.844355993108742,0.008706695407294187
0.859375,-5.204518798320551,0.12290753652360135,8.367861502229307,0.0032715653997788937,-0.00216044463527844,0.005895455002688653,9.855111785520121,0.007080045965660145
0.8642578125,-5.223714007745873,0.18063301882316452,8.282996338115291,-0.00285025727857936,0.001234543869947373,-0.0015765132043831377,9.794276117173792,0.0034833114997820168
0.869140625,-5.190144099432134,0.10364404843489058,8.363263318159923,0.002305908445449212,0.0022450408841357254,0.0005437064599117715,9.843399371686871,0.003263899361926576
0.8740234375,-5.233323192409099,0.1566180384400304,8.339443716445244,0.004310583913529986,4.276694719051645e-05,-0.003730318426280093,9.846751867795279,0.005700722607599871
0.87890625,-5.199841924726299,0.11326178150800527,8.273841866997259,-0.003924576660996469,-0.0009217892541039772,-0.005842828044211822,9.772801211186502,0.0070986362740492566
0.8837890625,-5.199620265997058,0.14694861637953946,8.396048562749348,0.004350424640185481,0.0022254045272411286,-0.0026684867069956025,9.87680496286469,0.0055677141777582765
0.888671875,-5.25243408939697,0.19032381633654039,8.376911022474093,-0.0008742681031920206,-0.0031640413693000756,-0.002641385972790095,9.889232796176469,0.004213362358040612
0.8935546875,-5.209260305842177,0.18541772009292026,8.29715806561078,0.00012270682740645893,-0.005376689110313996,0.000569117338555976,9.79865320493982,0.005408117722415656
0.8984375,-5.199661027647114,0.17097591677070284,8.311340727728547,0.004350162844521616,0.002224935278562782,-0.002666764317896155,9.80530939129139,0.005566496716504357
0.9033203125,-5.209363873388488,0.137330836361125,8.30666903638361,0.009466351511073714,0.0010525448760657621,-0.0016078894557317303,9.80597176234946,0.009659449785013284
0.908203125,-5.1852406810876825,0.12287909851348774,8.405570098049967,0.002215670124774459,-0.003223875598451673,0.0016250105684783235,9.877015180047557,0.004235944679026916
0.9130859375,-5.252523422281627,0.17108070725690105,8.339328312148954,0.004313837001011445,-0.0010790898627186958,0.004822082250290613,9.857112539066485,0.006559428468371727
0.91796875,-5.209267981000471,0.16618885349098758,8.330121546139512,0.003287205524062128,-0.0010641403464256211,0.004824623899557054,9.826241224718592,0.005934232099142443
0.9228515625,-5.170833184682467,0.1516901506758931,8.330320911134399,0.0032706958118502777,-0.0010426568356292868,-0.0015877589207125178,9.805853976483055,0.003782269525145135
0.927734375,-5.175648943624663,0.13727727184937108,8.353846761508734,0.0032418257552101586,-0.003239399918467635,0.0016234181008649641,9.82817087518219,0.0048619576704377054
0.9326171875,-5.161227346984044,0.14686325540389888,8.330373372682928,0.008330897324696234,-0.005494501956237155,-0.0005210739621830478,9.80076308617592,0.009993243720423811
0.9375,-5.175579712651299,0.17093752076251947,8.344367234333598,0.0011539978277107625,-0.004280714010360316,-0.004780885539217207,9.820606373306706,0.006520206282315956
0.9423828125,-5.194830610642048,0.170970706265202,8.330174035464228,-0.0017414139290235023,0.005580919209403656,0.0016149081845328076,9.818721684455001,0.00606523784682504
0.947265625,-5.242968810528894,0.14701734939486394,8.334719619104153,0.001192133815139087,-0.003212396988956688,0.0026980813417894203,9.847735129372719,0.004361229227496334
0.9521484375,-5.185180106501297,0.17576536553302746,8.349017852175328,-0.003905720415029107,-0.0009471266987311984,0.0016359837301771873,9.82970423240293,0.004339140895295872
0.95703125,-5.199769481214382,0.12769506281624854,8.306731979131373,0.005247075675110456,-0.006559793064612864,0.0048338077395172355,9.800801235611297,0.009691665772894544
0.9619140625,-5.161115680878222,0.17091714175344805,8.377351760589352,-0.002908897509115599,-0.002040969631491619,-0.002639426388162651,9.841054326717323,0.004426489965394626
0.966796875,-5.151694510625007,0.12279609954780668,8.306952362077094,0.005294396316125488,-0.003270007884452332,0.0016192123191081465,9.775504731658934,0.0064300414035163974
0.9716796875,-5.185053782332605,0.1854011625505538,8.438355398191765,0.004231043843652969,-0.005440613350551111,0.0016242234497508075,9.905806284343988,0.007080967974212925
0.9765625,-5.194931389051021,0.14691871891268035,8.292601806338322,0.0032626202817154773,-0.0010318484004847772,-0.0047928587170696394,9.786528596259254,0.0058890488965566085
0.9814453125,-5.223670033557263,0.13737875082709602,8.410073812445338,0.00223668615054779,-0.00101598969704312,-0.004792618905216925,9.901259670942977,0.005385554379188157
0.986328125,-5.166034315113011,0.161293201731019,8.302102462569037,0.001225996726587456,-0.0010232739967078923,0.001624054395666846,9.779510792511283,0.002277654566879382
0.9912109375,-5.2332261843661465,0.1950900141216024,8.344062946241651,-0.0028687294601917766,0.00014168500000423797,-0.0015751451561373897,9.851299551896101,0.0032757847331443325
0.99609375,-5.209301759745951,0.15656919794819546,8.320736349757459,0.003215130284932147,-0.004321727127322639,-0.0015791281404704993,9.818146064304273,0.005613201741978465
1.0009765625,-5.190109762859185,0.11807068325353742,8.36323187456223,-0.0029615661007931205,-0.005323385706686402,-0.0015617154571685701,9.843517025152334,0.0062887410759769145
1.005859375,-5.209231547543904,0.15177456215301985,8.39129302181056,0.0032923539784723986,4.7256517448568324e-05,-0.0005228882895742422,9.877900961820279,0.0033339526183463184
1.0107421875,-5.1323107289622065,0.14201361911287377,8.396352906393666,0.004310142519496544,4.2537226708582865e-05,-0.003732124655596522,9.841723599824345,0.005701569292654395
1.015625,-5.1661378826593225,0.11320631799922379,8.311613433341869,0.002335103039980893,0.0033233216750061393,0.004816712184945274,9.786966545278046,0.006300626114561465
1.0205078125,-5.238138393523827,0.1470121388893631,8.353552926839832,0.0032766128323336694,-0.0010493831909511074,0.0005495907191110294,9.861113167396647,0.0034841708759757142
1.025390625,-5.233214315440615,0.15663702841030597,8.433505304250405,-0.003942361656548689,-0.0031325700187659405,0.0016400120980955858,9.92648371513405,0.005295738856419986
1.0302734375,-5.151457501579176,0.1949406676232062,8.36323209677172,0.0073628113366722035,-0.0022038966132501875,0.0005409441237476351,9.824416896637807,0.0077045941882971005
1.03515625,-5.151644400334255,0.13241860358614013,8.330446796629921,-0.0019010985779291693,-0.0031492477079316083,-0.002638080109198308,9.795576478469897,0.004526743155013829
1.0400390625,-5.199738491606239,0.11327982197976706,8.363200375412163,0.00327109327651676,-0.0010421581452932966,-0.0015880742426504456,9.848514264519975,0.003782608177388203
1.044921875,-5.2621903923939035,0.11821435623350082,8.405244736454813,0.006281748427700412,-0.005466733686135017,0.0005519600192894435,9.917296075015798,0.008345669557736751
1.0498046875,-5.170965644953302,0.08917758162396479,8.34456640489518,0.005275663808905072,-0.003244361923093882,-0.005862218935675125,9.817261676662026,0.00852784402779508
1.0546875,-5.170886084110557,0.11803275025828602,8.353909676480308,0.0022259221405275323,-0.002120256292226885,-0.0015827608951327035,9.825466986753,0.003457650672288866
1.0595703125,-5.170785863529052,0.13727775833495293,8.400898545585964,0.00013104172684927758,-0.005387016482581841,0.0037729834861813883,9.86564584822675,0.006578185380846418
1.064453125,-5.161274244736243,0.11801378376066032,8.349248577439349,0.0011387513755784352,-0.006495421291414612,0.0037743214711702536,9.81644695856949,0.007598207355428044
1.0693359375,-5.223744573952799,0.15178639567546728,8.315980781042486,0.004271079394900188,-0.0032581646265033935,0.0026905892037188605,9.821714862206164,0.006008080075540558
1.07421875,-5.262200030009565,0.17589525904821615,8.27813581852707,0.00021596291086428804,8.891919789547446e-05,0.0005562522561262331,9.8106687299067,0.0006032936060235309
1.0791015625,-5.2045247999964435,0.11809960774923285,8.372575062818797,0.0012315156762343386,8.852549705720369e-05,-0.0037232499687406867,9.859058732640948,0.003922634058151189
1.083984375,-5.18033712831698,0.19018299185211834,8.349007398752281,-0.0049961107192221625,-0.004200451560648897,-0.00155945119903891,9.827409978108655,0.006710946555760092
1.0888671875,-5.204351020248085,0.1613918556858525,8.433620764099068,0.0012237569061872152,-0.001018950203578586,0.0005527017020384771,9.91147194243529,0.0016856214445272035
1.09375,-5.185250876530811,0.17575302205234833,8.287877820101972,-0.0008403342967563212,-0.000974927987557741,-0.003713942150919776,9.777864518301648,0.003930650405671679
1.0986328125,-5.180469588587815,0.12767042280019006,8.363252892513065,0.0012258665761963512,9.550913948429922e-05,-0.005860659892239643,9.838575295197437,0.005988255608344284
1.103515625,-5.122878113184678,0.09870145518011464,8.325943026682177,0.004241230523659028,-0.004337029609320882,-0.0015820371686155051,9.776244136853316,0.006269027340012487
1.1083984375,-5.1899958654434935,0.16135248670650545,8.372543702549661,-0.002015148445109399,-0.009703857536853065,-0.0036912254778455234,9.851983544413324,0.010575954797542525
1.11328125,-5.185287021012415,0.0988366061461039,8.415028662826641,0.00021063407875418884,9.668542956702137e-05,-0.0015842014938233279,9.884820562923144,0.0016010650081915003
1.1181640625,-5.233322076754163,0.16623199699173982,8.320610436485751,-0.0008077398433349083,0.00010057516832085634,0.0016264798298483711,9.830963893312902,0.0018187896128736432
1.123046875,-5.175670161190892,0.1420804531311707,8.325617803967955,-0.0028394141496327617,0.0012202694145590231,0.002697283374383735,9.804267453020236,0.004102032149919095
1.1279296875,-5.233362972830471,0.1421904541228698,8.334772080652682,-0.0008261990827433402,-0.0009923037364740867,0.0016290440669260943,9.842597815976434,0.002078715036202288
1.1328125,-5.1661074508786475,0.09398409788688755,8.377498469602406,0.0022024801733155222,-0.004324197978014495,0.0037658167268928796,9.842762814010614,0.006142555061817421
1.1376953125,-5.185308796406111,0.09883280815204878,8.396216345265609,0.005337489177771965,-0.0010904045190351932,0.003749539399802386,9.868821822008906,0.006613381770972824
1.142578125,-5.209188420157726,0.1950440221253088,8.33946481772464,0.0012207430534316068,-0.0010158843089896283,-0.000514097248311614,9.834650965506565,0.0016692904218482867
1.1474609375,-5.199680148329724,0.1469381718958879,8.34431468945651,-0.0019484324766460904,-0.006439031304070277,0.0005761490956862804,9.832896425162529,0.006751996818075843
1.15234375,-5.185189455141994,0.14211556110353066,8.4102312526433,0.0002689269811618536,0.003372031925690803,-0.000523850923918634,9.881213298039953,0.0034230601542428758
1.1572265625,-5.170675178651912,0.1997865293928261,8.36784073426415,-0.00494810805654703,-0.0020287463965430177,0.002709360565256383,9.838524026217764,0.005995016259637525
1.162109375,-5.185221002577604,0.1517238226641574,8.363179496342259,0.0042473787894626094,-0.005462326591361112,0.008038293687959016,9.841357033050638,0.010606196480630995
1.1669921875,-5.233300859187935,0.16142881570994022,8.34883939402653,-0.004934465568020195,-0.0009280023165893588,0.0005702579821432504,9.854776322807533,0.0050532497373245045
1.171875,-5.19004332102316,0.1276960357874122,8.40083554728583,0.00031161731763788706,0.005551039062680276,0.0016084073660538414,9.875570557906725,0.0057877555479849355
1.1767578125,-5.204376566007802,0.17580804602084776,8.381855447208537,0.008472134231167374,0.0021428533825542224,0.0037335671768022774,9.867722363735021,0.009503073340437682
1.181640625,-5.194858387711636,0.16615897949677835,8.316075278492685,-0.0008714351280044077,-0.0042863295779002105,0.005912088798357519,9.806695188105039,0.0073542378525831426
1.1865234375,-5.214072852245819,0.15177787366149315,8.363053555294364,0.006334273690355285,-0.0021845337485648254,-0.0005245213456540839,9.856482993450642,0.006720887852433829
1.19140625,-5.238189619469516,0.12777567629932024,8.348891772246501,0.0012611122033821963,0.001167222510207602,0.0005495057291284954,9.856924009936227,0.0018040978144767742
1.1962890625,-5.214173630654793,0.12772588630897155,8.325481326168456,-0.0008076862892371623,0.00010070844955164488,0.0016264763120340713,9.82433508513573,0.0018187700589246422
1.201171875,-5.204494791616984,0.14213925162107538,8.349007259871351,0.0012313704479555239,8.829749204666605e-05,-0.003722872405634931,9.839354238373788,0.0039222249522226455
1.2060546875,-5.233266522614986,0.17585545052858706,8.348807950428837,0.006244052745202163,-0.007653572928474756,0.000558150647618856,9.854978327188098,0.009893275766993745
1.2109375,-5.228602768027454,0.1469798794125445,8.283048716335262,0.003223383683531084,-0.004332522687073414,0.001627988629253906,9.796365960291586,0.005640150900662167
1.2158203125,-5.166090427079656,0.14686276891831704,8.2833215886057,-0.0008507564378016875,-0.002078758519778612,-0.0005049499801005288,9.76337418692532,0.002302172448453136
1.220703125,-5.199589141962663,0.18060221880309138,8.353647479842405,0.0022258351805299692,-0.0021204554220621338,-0.0015829387261735045,9.841329718291629,0.0034577982096498025
1.2255859375,-5.20923420225499,0.1758085090337797,8.339506742521564,0.002215468777513874,-0.0032243058481535546,0.0016263059941693393,9.834348087918919,0.004236663934423777
1.23046875,-5.19961747685972,0.17098351275881307,8.348965362850612,0.001223526336301141,-0.0010193637274536484,0.0005544770092548991,9.837198783057076,0.001686287003526667
1.2353515625,-5.247774239601709,0.1277993902895148,8.377068268238752,0.0022526721539200215,8.073225713028477e-05,-0.005863122611728966,9.885885894785467,0.0062815011176115786
1.240234375,-5.1755612842224075,0.1420994431014463,8.419679391773114,0.007341975349678783,-0.0032927182687957535,-0.0005258038701348583,9.884211041793902,0.008063688073257856
1.2451171875,-5.2621876032565655,0.14224925261277444,8.358161536556077,0.003311237024790872,0.001140529972462186,-0.0005245034120368669,9.87773848068987,0.0035412149160519496
1.25,-5.175652713990684,0.15169726017842147,8.320893762179235,0.005267692333151638,-0.004352254422023738,-0.0015844860517846503,9.800391118524713,0.0070143636289452405
1.2548828125,-5.14190121634404,0.18529824758873328,8.330373483787675,0.00021801908814880403,8.483313619017454e-05,0.0016229894965549992,9.791251500119511,0.0016397633639403419
1.259765625,-5.151519615221713,0.17570230603613576,8.349164783397871,0.0033131342620685927,0.0011361182612793983,0.0005435007536838499,9.812113851086915,0.003544434568638591
1.2646484375,-5.151560511298021,0.15166076316726568,8.363326427564802,-0.0018584971045163645,-0.0009702882692608232,-0.0005069792898111993,9.823787743159633,0.002156965185917089
1.26953125,-5.214080950805329,0.17581087104373921,8.30656419661511,0.0002234212279863199,0.0011962500253844394,-0.0037222252341532077,9.80900394415336,0.0039161067225133295
1.2744140625,-5.161297693612344,0.10358904793904104,8.35868617981756,0.002236825229219276,-0.0021346111715422993,0.002691970699037237,9.824324873782123,0.004099592443672918
1.279296875,-5.204686018565551,0.08923019663720495,8.2926856003798,0.0013647867354564507,0.0066179835502471395,0.00481189286517111,9.791085386543726,0.008295460327824144
1.2841796875,-5.19489607124939,0.12289046902300321,8.372606561968864,0.005292059972641988,-0.0032659184856086597,0.0005493387881064827,9.854064537031565,0.0062429076088628905
1.2890625,-5.161227904811511,0.14205627612804417,8.339790012662675,0.0022366287308608797,-0.0021349017507382973,0.002692161007393004,9.808697718163227,0.004099761511935189
1.2939453125,-5.209207540840337,0.17100627725049386,8.372438779452603,0.0032364781931191666,-0.0032321352727450164,-0.0005143815274593601,9.862191311574152,0.004602833678469149
1.298828125,-5.175638613755282,0.13247219157054393,8.372669560268998,-0.0008531907880400681,-0.0020746730496299195,-0.0015754731646299438,9.844103794007317,0.0027412257251321413
1.3037109375,-5.214080527404113,0.1325490070595605,8.396017035823094,0.006339862726751991,-0.002191497550309009,0.0016122727657442186,9.88419481047186,0.006898981401499072
1.30859375,-5.16594330874595,0.1949572486382225,8.311435252954935,0.004320855234611431,2.7679806624095287e-05,0.0005444593523532251,9.787999517880849,0.004355111033777284
1.3134765625,-5.12269275348575,0.19487142464965,8.288108767575485,-0.0008271768717803157,-0.0009933711418020385,0.0016290608225733646,9.74539393056648,0.0020796266410624677
1.318359375,-5.190147311970687,0.12287101603979568,8.320893678850675,0.0023030244524125895,0.002248366632785344,-0.0005241775020083143,9.80764997444731,0.0032609563317291586
1.3232421875,-5.15633104597042,0.15167641815641808,8.396226993121958,-0.002921950918151785,-0.0031410843068338918,-0.00049961791690716,9.854307855526587,0.004319007507937542
1.328125,-5.233287740181216,0.18065863181038666,8.320578992888057,0.005435198800023778,0.005485516352799058,-0.0016088971381128941,9.831173525559839,0.007888017853278076
1.3330078125,-5.2862390442991725,0.11825844923276685,8.40043670619131,0.0012347856407730385,8.546781359000941e-05,-0.0026546423003352445,9.926008520498774,0.0029290145217373605
1.337890625,-5.262175042077314,0.15667208943736613,8.33931777539735,-0.002812644126570527,0.0034212446188836504,-0.001582837604478708,9.862010610221844,0.004703323995550797
1.3427734375,-5.185240123260215,0.12768607778934246,8.39615345807022,-0.0007918622971111076,0.0011975051021847255,0.0005533011018074823,9.86906336800982,0.0015385728700993996
1.34765625,-5.242991143750059,0.14220657212495416,8.325323941522866,-0.00383909935725551,0.0034363566985022454,-0.0015799821935962197,9.839725482648939,0.00538920912252457
1.3525390625,-5.16122846263898,0.13724929685218942,8.349206652642424,-0.0008402021530191714,-0.0009745974264517499,-0.003715217935054059,9.816637323522228,0.003931745681822742
1.357421875,-5.228234548791973,0.22395421472812949,8.44278571641633,-0.0028156540177318007,0.00342469735681432,-0.0026544240338326496,9.933036929398787,0.005167439064442716
1.3623046875,-5.18996487583535,0.14693724587002396,8.429012098830453,0.0012581712348784947,0.0011707766803189354,-0.0005213767695755084,9.899776307011116,0.001795980686785717
1.3671875,-5.117904348211926,0.16121071272356963,8.339936999437592,-0.0008192720692983359,0.00011447043757776366,-0.0026494603634305315,9.786392745334284,0.002775599110462652
1.3720703125,-5.252580649903207,0.14703631589248967,8.339380718145112,-0.003969140253679886,-0.004215052428269575,-0.0015611143694918912,9.85679937525865,0.0059964839198548125
1.376953125,-5.2236111324532795,0.1758440800190716,8.381771486509939,0.0011838180342486591,-0.0032016724899830468,-0.0005093540663705441,9.877809861281934,0.003451314740248245
1.3818359375,-5.223749036572539,0.11333056146862953,8.391313900880464,0.005308173620979132,-0.002168966995590487,-0.0005222719596128739,9.885066858467122,0.005757941734527834
1.38671875,-5.1948225120825375,0.14693770888295593,8.386663394143481,0.001196913989066816,-0.00210137243675751,-0.00264961664242832,9.866300953700812,0.003587316206723511
1.3916015625,-5.21414040973678,0.13253856257590893,8.344283162530257,0.002276893022002097,4.798901862796903e-05,0.0037556866489982304,9.840319516128815,0.0043922348508491985
1.396484375,-5.266900910307384,0.16630929896633823,8.391009696117075,0.0011764425977459966,-0.00430882617882389,0.003768320821266776,9.90842811460275,0.005843820842317306
1.4013671875,-5.185174104825405,0.18057329430739597,8.344304291585837,0.0011649075991062704,-0.004295121039515842,-0.0005060666206363375,9.825785023220627,0.004478970627618523
1.40625,-5.19958369811424,0.18060316830160517,8.358350559232663,0.001185856740006375,-0.002087243925243136,-0.0069239736264399485,9.845319304579252,0.007328318646928427
1.4111328125,-5.18524933747466,0.1421051166198791,8.358497379350462,0.0012979238472504333,0.0033530386115561664,0.000543405445195437,9.837249767925966,0.003636311829548715
1.416015625,-5.219007394624663,0.09888922115934407,8.36314785831126,-0.0040330262410399045,-0.007483273620519073,-0.004759473522178384,9.858501882293508,0.009742549612334042
1.4208984375,-5.132166265339588,0.214142045713539,8.372680291453905,-0.000795310649594625,0.0012002469940374306,-0.0005157275234531688,9.822767565901819,0.00152940732131818
1.42578125,-5.132329715218566,0.16604471749809224,8.330457388933898,0.0053127309294791186,-0.0021771903235527855,0.0016155852007560833,9.78595419275851,0.005964510304703816
1.4306640625,-5.175661504803914,0.12285443502477938,8.37269052266746,0.00012787989415484548,-0.004265143982966976,-0.004778642059070885,9.844008929947183,0.00640649876231079
1.435546875,-5.238043616790745,0.16625619746751624,8.395838716555229,6.738990771439292e-05,-0.008655248180477701,0.0005754467119724359,9.897214244877514,0.008674618226967927
1.4404296875,-5.204602129529318,0.10847235621833051,8.325565231314679,-0.0009672481767121497,-0.008629388796859453,-0.002626407504468307,9.819098023731126,0.009071931239942457
1.4453125,-5.300397259454271,0.26734550921456485,8.32479954824706,-0.003020075607506063,-0.008599396618022812,-0.0026215419799493597,9.872586907585164,0.009483826296477182
1.4501953125,-5.171012542705502,0.06032810998072625,8.363441609651602,0.0012211180089989088,-0.0010152375493497053,-0.0005140794020137837,9.83311577048309,0.0016691656913218364
1.455078125,-5.223507564906968,0.22393096375086682,8.372260515737109,-0.0020310699515227017,-0.010800701994180106,-0.002619934263358416,9.870659679096292,0.011297984964558236
1.4599609375,-5.1756603891489785,0.13246839357648882,8.353857242707965,0.00207719864080259,-0.010864870380190579,-0.001560934582235606,9.828119818696088,0.011171243410727104
1.46484375,-5.204448028291036,0.12291988000428049,8.429001534302662,-0.006016458694375077,-0.00419164407324192,0.0005793270422905396,9.90704070049979,0.007355492850910445
1.4697265625,-5.189950641173696,0.17578102052217986,8.381918417732484,0.0011142404703327715,-0.0064630550288592775,-0.005844881839955319,9.86017459209106,0.008784944840739188
1.474609375,-5.238110616454239,0.15182386565778674,8.367651683811374,-0.004043539702326889,-0.008587323530177545,-0.0015509160438761898,9.873117441719469,0.009617571383222863
1.4794921875,-5.199712945846522,0.09886363164477179,8.414965692302694,-0.001961712070498507,-0.0064204778146024636,-0.004768639537149514,9.892342308042988,0.00823472966469498
1.484375,-5.185234544985539,0.17575587054788966,8.301987058272747,0.0020688083880924966,-0.010854464274392808,-0.0047660960548937,9.789818002816581,0.012033911850898067
1.4892578125,-5.2236754774056875,0.13737780132858227,8.405370733055081,-0.0009457906609002075,-0.0075396651040916494,-0.0015622418330553465,9.897268073243563,0.007757684538639833
1.494140625,-5.2045993403919795,0.13250725259760412,8.278482031415944,0.0021728848874149713,-0.005403266817658569,-0.0005040653471162116,9.779502912238241,0.00584557977543117
1.4990234375,-5.194718386708757,0.1998315718906059,8.367735783390902,0.0010692744910070912,-0.009756833653793671,-0.0015616625603603728,9.851093031485128,0.009938709213844148
1.50390625,-5.219055831433014,0.10368765494857478,8.311403503819191,-0.007194303287593678,-0.012917692786705733,-0.00046212155472067154,9.814719716054128,0.014793185696695894
1.5087890625,-5.137034789283624,0.2141406097294434,8.320925427986419,-0.002254689036943872,-0.023918146899157344,-0.002586477608719686,9.78124647502334,0.024163013888242362
1.513671875,-5.185122878879716,0.19980975689743885,8.34896544617917,0.0030820296032329025,-0.011969873840281546,-0.0026297136176129995,9.830088871903806,0.012636937126460657
1.5185546875,-5.242961693198068,0.1614392367209419,8.311172778555168,0.007143089030601709,-0.015323867194193647,0.0016443865829660932,9.828036573929293,0.016986719339490648
1.5234375,-5.189960547641862,0.13732423681682832,8.452548458180205,-0.001105488252009857,-0.016269811986575105,-0.005816426315618439,9.919683657757483,0.017313569864093697
1.5283203125,-5.1948253012198755,0.12290281250368233,8.433746594042217,-0.0030942513843820276,-0.012970996614898887,-0.002612823152555719,9.90602829715493,0.013588524189182565
1.533203125,-5.1227407668928855,0.15640799445470197,8.325817252291401,-5.49816336986289e-06,-0.0119136859631399,-0.0058277018255731144,9.776817955964445,0.013262656296002899
1.5380859375,-5.011923987041924,0.25237646542553294,8.316684243543186,-0.0061593741147831105,-0.011830920705207637,-0.003675848686133269,9.713408914432996,0.013835477504665992
1.54296875,-5.021429180757624,0.23318650479001532,8.453073490308295,-0.006129971603989469,-0.009633281151051528,-0.006890254730760591,9.834814609128799,0.013336126418705343
1.5478515625,-5.055272108172545,0.20918333445667872,8.344808139105975,-0.008068377230945962,-0.0030482005756028723,-0.0058300560688149435,9.758860416748005,0.010410561543715058
1.552734375,-5.19973193210288,0.12289473002999028,8.349070174842925,-0.008093891977358656,-0.00412920001177455,-0.009032104878636652,9.836629913992454,0.01281172504454735
1.5576171875,-5.199676377963703,0.1325181835668375,8.377267688786011,-0.00596951012827345,0.00021636087174104252,-0.01011759393478855,9.860669826847856,0.011749364673362126
1.5625,-5.194930407822339,0.10846383420435639,8.372638005566559,-0.005908242155011861,0.0034884596357497855,-0.007988179902741085,9.853939999700884,0.010530322604320881
1.5673828125,-5.185141999562327,0.1757720120226239,8.381939407907133,-0.0049035003365106395,0.002383410220924904,-0.009057392836497173,9.857662075444779,0.010571722888252396
1.572265625,-5.180544821237071,0.08920224511267316,8.37744598027769,0.007458635384161431,0.004376930865896512,-0.005887195250415442,9.850259023896285,0.010461731860223557
1.5771484375,-5.199575041727262,0.16137715019521384,8.405423277932169,-0.0017339809689377922,0.007807045535183832,-0.010147865819016859,9.88497666564581,0.012920364958848607
1.58203125,-5.2669815868050645,0.12784017178030757,8.400499704491445,-0.0038600601088319116,0.0023473929214024103,-0.0026473674643498323,9.915938353500653,0.005236303282139379
1.5869140625,-5.190182206371103,0.10363740194529412,8.330341762428116,0.004422044954605232,0.006601217427629684,-0.0037464916586965047,9.815463612344919,0.008784460874525763
1.591796875,-5.194876950566779,0.14692821389781813,8.3396326002409,-0.005810086928711197,0.008946260484545134,-0.005863947262966039,9.82638317686472,0.01217286179496676
1.5966796875,-5.2527011068222595,0.09413960438929839,8.344199090726915,-0.0069419547365107874,0.002396448999019403,-0.0037069720151613143,9.860293588347876,0.008226502591615394
1.6015625,-5.204458781561633,0.17098682426728634,8.320725896334414,0.0033528414038383266,0.004437128452596226,-0.0058759350792468345,9.815809041794626,0.008090504770387015
1.6064453125,-5.1900623072795184,0.15172713417263067,8.334940029826061,-0.0007603231332627055,0.0033904955142782123,-0.0015883391754767289,9.819928369264447,0.003820519916931358
1.611328125,-5.247808018347189,0.1181797347467227,8.367683071856696,0.00433219488945072,0.001132639717270036,-0.0026646546162088854,9.877832527339738,0.0052106784119732245
1.6162109375,-5.199540147326846,0.1806107642897154,8.395975194354728,-0.0028452154821479894,0.0023459366987513136,-0.0069254015721963,9.877258600242321,0.007846008989963101
1.62109375,-5.170904512539448,0.14687082791935924,8.278597519040792,0.00021008622140879436,9.580061288466664e-05,-0.0015815735181369196,9.76191586729587,0.0015983393792079628
1.6259765625,-5.262200722263285,0.12301943651232798,8.38642193769455,0.003258334514931532,-0.0021420608339882347,0.0005518956059735779,9.901412179088014,0.003938242906118592
1.630859375,-5.214064195858841,0.13255185555510182,8.41012627399387,-0.0018978460235441435,-0.003152202888490989,-0.001570733924398449,9.896173976717982,0.004000675897963918
1.6357421875,-5.252564318357934,0.147039164388031,8.353489956315885,-0.005992854261890803,-0.0019876778574251736,-0.004767834653731191,9.86873076360994,0.00791185267522602
1.640625,-5.2141104013573205,0.15657820644775142,8.32071535958281,0.006307891749653064,-0.00438527115273529,0.0037566645726334526,9.82068063361569,0.008551761813780407
1.6455078125,-5.161306907826789,0.11800808676957765,8.321030101097803,0.0023427665104948417,0.004430779889163864,0.0005388985480639507,9.792474500793926,0.0050409103338603985
1.650390625,-5.2092408961846015,0.11812475772352306,8.452506422278534,0.0001763204602299977,-0.002092887784516097,-0.0005108133178557707,9.929501950829621,0.0021615268744503814
1.6552734375,-5.141909449329803,0.16126240171094586,8.372753604296154,0.0023212588788893125,0.003341170141188735,-0.0005285827046262536,9.826914127312142,0.004102567533974745
1.66015625,-5.1758178373520645,0.08917899413541053,8.30692077959847,-0.0028895427973705816,-0.0020659185960494493,0.004843615675824749,9.787848385471225,0.0060065039780586495
1.6650390625,-5.204596685680894,0.10847330571684428,8.330268310704938,0.006355643122706215,-0.001095002211293176,0.0005423607835447551,9.82308318436674,0.0064720463970422085
1.669921875,-5.276685971602591,0.12784299680319902,8.325208453898018,0.00021089444688519827,9.665330504698535e-05,-0.0015818167109893093,9.857426361662268,0.0015987377634460742
1.6748046875,-5.19003453020993,0.15653886094105432,8.349038786797603,0.00020437635147286303,0.0012216047532709149,-0.011204121740003351,9.831958680914344,0.011272374720132008
1.6796875,-5.127582763848518,0.1035354834272871,8.405863904942683,0.0031456448800459636,-0.007582732220613077,-0.006916519574758,9.846896596637093,0.010734577433177968
1.6845703125,-5.204610785916295,0.12769837432472186,8.278492512615175,0.002191491500592202,-0.004310169978466626,-0.0005067723154607612,9.779453900351845,0.004861791688272989
1.689453125,-5.228621330882596,0.1277491138135843,8.306606038083476,-0.0018263130192519082,0.0012233722368176548,-0.0026479803327318714,9.816033044451588,0.0034414907695125446
1.6943359375,-5.185199227183907,0.15172762065821252,8.381991813903289,0.005395723988868103,0.0021848507750843725,0.004810040994949383,9.857337321244563,0.007551417393213486
1.69921875,-5.117902809155775,0.12756280729110037,8.410556558686082,0.010497856204206853,0.0010301343734524897,0.0005241253674439281,9.846149656623448,0.010561291072230274
1.7041015625,-5.084437180764529,0.13707952439942206,8.222559351899843,0.005354499776951138,0.001119505137240495,-0.0037338977408076504,9.668545626756172,0.006623137621436393
1.708984375,-4.963773783803294,0.28594567984460795,8.302711538724283,0.0014336797382126167,0.01210979802606379,-0.003754304356694637,9.677594432701756,0.012759210282243812
1.7138671875,-4.920250901695632,0.3339761740417578,8.415669543670004,0.0034145549372690807,0.007703487689082953,-0.002682871222824529,9.754173613829064,0.00884311630556453
1.71875,-4.973223981207284,0.2715721934700828,8.476714939412226,-0.006566952589748653,0.024248688428744575,-0.0016299852811592693,9.831653186904825,0.025174999679188348
1.7236328125,-5.223703812302744,0.12775909528430393,8.400688616063286,0.001773377832655455,0.03178410750681663,-0.0027344119340611726,9.893178110655311,0.03195076474151076
1.728515625,-5.127727093044886,0.07947590008665527,8.330667040694712,0.0017996193653457596,0.03286585843430215,0.0004701762296059869,9.782633331693381,0.03291844993572152
1.7333984375,-5.14213822538987,0.11315367951333376,8.27409374909305,0.009090613463034462,0.038206549221226176,0.005783062774422742,9.742433815684034,0.039696643076980655
1.73828125,-5.069723155365154,0.18036468630616317,8.38243269089948,0.006037267018802833,0.04045232440908483,0.0015073006630433872,9.797948872573903,0.04092812112036144
1.7431640625,-5.074493132210087,0.1851873205711703,8.405916616476889,0.0011683926245846037,0.055827732985713634,0.0025501250428428593,9.820601257342135,0.05589815783532992
1.748046875,-5.065145655549975,0.06495019524554277,8.420329864977747,0.012498857276823806,0.05784388188305835,0.0035852518039583624,9.826590155025057,0.05928735223490254
1.7529296875,-5.069874601892349,0.14188321563945339,8.330782667200493,0.008536150884625454,0.06665563522729756,0.0014378547564570289,9.753240444791745,0.06721537774780642
1.7578125,-5.13257062905667,0.06025129449170968,8.340094134097505,0.012804684554123041,0.07532226305685848,0.006749822094299198,9.793062934871333,0.07670047820477963
1.7626953125,-5.146890889460847,0.07952427756555824,8.391723112069469,0.01915705931760082,0.08615120089142979,0.00991191692620289,9.844685202096525,0.08881029463910993
1.767578125,-5.094030726136205,0.06019156997594113,8.401402087568052,0.01515517293104849,0.09166276491557773,0.014182959747028573,9.825290280745334,0.09398349900766775
1.7724609375,-5.156579077139352,0.0314611078239576,8.42941057883455,0.019359593066019597,0.09706076292206095,0.016296300953518788,9.88161223114248,0.10030530877008481
1.77734375,-5.151836877364008,0.02182674679052685,8.391827896285596,0.02270430748178104,0.11231085366500866,0.018388516932165623,9.847064286309921,0.1160489163420098
1.7822265625,-5.166125032505107,0.03629844757960336,8.481091990578859,0.019776802326840863,0.12109772350333495,0.0194411387394847,9.930714313755757,0.124232598070929
1.787109375,-5.271857362506178,0.06534800521010059,8.471161160760673,0.02300558630932461,0.1286788003294628,0.026895881572980524,9.977841541334259,0.13345740556916777
1.7919921875,-5.266994705811783,0.10861035567986112,8.428760105629918,0.01906436162588228,0.13858034659586854,0.025813552165006477,9.939669328436873,0.14224732623922665
1.796875,-5.180342148764188,0.14692017836942584,8.433757158570007,0.007885109212682729,0.1453051809646203,0.02582469276788944,9.898777203614884,0.14779271064234822
1.8017578125,-5.305408150137306,0.16637472047318944,8.357920218988077,0.01928453370015387,0.15170038544835146,0.024713493669065,9.901003311489477,0.1549053160951608
1.806640625,-5.223691251123491,0.14218193210889565,8.381844854904559,0.024453221425645467,0.15381037990120083,0.02469419712532965,9.877372583869272,0.15768765447906188
1.8115234375,-5.189971858739925,0.18058420180397947,8.353689460191704,0.02040354772988818,0.15603156036625634,0.032180170330059085,9.83628721346482,0.1606166739562432
1.81640625,-5.156309559551687,0.24301092339468536,8.226716992287274,0.027615979022361944,0.15923943095591878,0.021469053109367548,9.71212927498401,0.16303606628577985
1.8212890625,-5.132454500331107,0.12276101504809663,8.31173940216595,0.026635941120640865,0.16031256270234487,0.03215461743009661,9.769450923890382,0.1656608298350922
1.826171875,-5.050941120592606,0.12737402139540752,8.100447181374143,0.03698623630168459,0.16563193706473986,0.029981790394140808,9.54701392495329,0.17233928167083729
1.8310546875,-5.045787708621859,0.18991461238981722,8.269642774008071,0.02594868816340602,0.1799948024417042,0.034245364423697876,9.689325712875098,0.1850519070637795
1.8359375,-5.136957170775786,0.13243715401613365,8.556257577886251,0.041571376526212483,0.19288215459510505,0.03523708839432729,9.980752091565273,0.2004329247056076
1.8408203125,-5.161526046271196,0.0122184617572502,8.34947916382244,0.05130312352548872,0.2211508579157314,0.03942293513196939,9.816073691871345,0.23042109333729635
1.845703125,-5.002986028972358,-0.11308306786464989,8.482130573693102,0.06826390914687158,0.2526072543661792,0.03929907635534786,9.848309299342175,0.2646031059016794
1.8505859375,-5.094259905475028,-0.1321236820017713,8.599350669928144,0.08227542280815235,0.288410146470501,0.060547399431575846,9.99588778429759,0.30596673898207116
1.85546875,-4.869276460745795,-0.45478655219416164,8.379994717143033,0.11883540957346168,0.3250354746559441,0.06250663271037755,9.702628278903346,0.35167739973745443
1.8603515625,-5.162801385491233,-0.5167609967553417,8.336522857567124,0.16570637893011145,0.364804522240582,0.060154896534654646,9.819326526220467,0.40516608328240405
1.865234375,-4.901282082471798,0.1079703361437558,8.651400090245376,0.19826381243353788,0.4080528341078315,0.059953140530144416,9.943889941413461,0.4576134108650464
1.8701171875,-4.823514852918182,0.44925940602104353,8.665101006065106,0.22233815259352466,0.43613905287571963,0.054476278064448755,9.927341285335725,0.49256389678272844
1.875,-5.166942129816231,1.8299706274400465,8.237304464187734,0.10489024479584097,0.4093818798599495,0.07301352644261411,9.894405909699197,0.4288664851146378
1.8798828125,-4.603198240888785,0.22276791780963426,8.370265168876587,0.06909041978340338,0.41646762012841754,0.07629658778693987,9.555124205756588,0.42899875760799705
1.884765625,-4.815145420820857,0.016404364521975415,8.47796311873491,0.14451245335011959,0.4493547775629211,0.04396219778173729,9.749961700922563,0.47406354017757296
1.8896484375,-5.17839473614806,0.9788504225869773,8.403725434761425,0.11816482586644318,0.4694139701868703,0.04611589331596503,9.919502072988378,0.48625001500768744
1.89453125,-5.017016535451324,0.15139143420645082,8.279258723430333,0.1000799397910068,0.49264871192488,0.0450428315321532,9.681916096147516,0.504725276147578
1.8994140625,-5.113971702550719,-0.2571498165494414,8.44433760053105,0.13660034796481763,0.5270988131174283,0.044864217731506416,9.87550860028907,0.5463566709454282
1.904296875,-5.031383693607699,0.14181494563706085,8.34976290615872,0.15488048715383967,0.5749110306061905,0.05111138485604303,9.749537114149144,0.5975977175956961
1.9091796875,-5.041585121971771,-0.06015796529664477,8.260802627762239,0.15436260228172946,0.6033144591502431,0.0606643920317611,9.677916076187024,0.6256966661758083
1.9140625,-5.118687106485158,-0.20424884403926305,8.41598284082331,0.18184437395744582,0.6476940453032862,0.07330741334609756,9.852484075674578,0.6767192397980173
1.9189453125,-5.026392058033526,0.17067914624358785,8.448485676333396,0.18031272024737677,0.6783243128871684,0.0743012189285093,9.832123815088757,0.7058025373085026
1.923828125,-5.1699959879249935,0.5171592024238636,8.301305863651264,0.1867062810573836,0.6924485323983974,0.0721148719781268,9.793262541038256,0.7207945339466683
1.9287109375,-5.347958182800566,0.7145672732353123,7.858010035336508,0.1764650470059373,0.695920922381494,0.05931779800922502,9.532029418146577,0.720391868488103
1.93359375,-5.709205106857448,0.5276700721012146,7.725158316080625,0.1628139126090719,0.6786496981494914,0.05405794545409708,9.620370557606817,0.6999971745687181
1.9384765625,-5.834899496413012,0.2922502677481623,7.631064562496929,0.1471837045890642,0.6646620271981,0.05627391882162032,9.610650795301853,0.6830852122796913
1.943359375,-6.022972785416855,0.08100525823294183,7.602488642110248,0.12957549994232442,0.6550774667881996,0.05848293579955269,9.699515275473757,0.6703257055034385
1.9482421875,-6.080691411668657,-0.0006062369604306995,7.757616560279906,0.13160070053006873,0.6517332485341548,0.06917043519215162,9.856745056447044,0.6684755199179391
1.953125,-5.830517128338673,0.09027786677268845,7.678556556941878,0.12147593043748088,0.6595200653619411,0.07345157365769739,9.641748330838903,0.674624526654244
1.9580078125,-5.675713489182806,0.2920403411260833,8.064440542164084,0.11657056718232986,0.6749417678332088,0.060591125561809484,9.865810277429647,0.6876091706746458
1.962890625,-5.607765234096129,0.5371746100374062,8.101824498570432,0.09635997802718828,0.6949408082380639,0.05417868931180198,9.86788466126566,0.7036784085756209
1.9677734375,-5.645895329451088,0.691126035273518,8.077805781846545,0.08222328914209205,0.7104916752723122,0.043489425929807236,9.879510894623477,0.7165545478721804
1.97265625,-5.674376036320233,0.8402581612257457,8.09146416179325,0.05252649036788343,0.7164292615904817,0.03393139071538672,9.918486248448215,0.7191531535975701
1.9775390625,-5.90061264159705,0.7781519006796994,8.020067688320879,0.037096519561086214,0.7178234411733451,0.012596729597008808,9.987203595198956,0.718891731805304
1.982421875,-6.025771880647098,0.7447144787728407,7.972564518272043,0.024618072992959397,0.7103980871299052,-0.00017551421824903895,10.021292901143122,0.7108245370841919
1.9873046875,-6.108610172191381,0.3937748829147381,7.751928081504777,0.012204287299682995,0.7062420092713131,-0.009744459655139386,9.877376467212175,0.7064146620661588
1.9921875,-6.113702162773312,0.29759683097151074,7.705085921412176,-0.00013315156759323055,0.7053351800793929,-0.010777786158843962,9.840440389802048,0.7054175321477737
1.9970703125,-6.243762165456727,0.22089041210529492,7.667062250762289,-0.013684859373008,0.6935170316288942,-0.012849397601172608,9.890257939508606,0.6937710397199675
2.001953125,-6.349655021773186,0.2739463811596524,7.468955839337627,-0.025386543086722165,0.6696396498375493,-0.013824782939727854,9.807062090415027,0.6702632779943866
2.0068359375,-6.369147814830723,0.20664102836427634,7.384363186403627,-0.033978961509670294,0.6456777571313741,-0.0030545272946390207,9.753848679904745,0.6465784299034968
2.01171875,-6.35894471298425,0.42303487712554605,7.445073544860866,-0.050704597389470904,0.6284378276811446,-0.005109482020946006,9.800217163840918,0.6305007266161925
2.0166015625,-6.5608575503709945,0.43303573814522983,7.46768639207843,-0.05347057652884523,0.586943460539674,-0.00820577160134063,9.94980963622945,0.5894311351737268
2.021484375,-6.85470506680336,0.45272202186423943,6.977243810041077,-0.07397504480503256,0.5293240563094953,-0.015480101943849845,9.79152030926235,0.5346923390119185
2.0263671875,-7.162485214746849,0.5013626616032855,6.853515562724513,-0.08052942745285012,0.44746024630764614,-0.027013408709894278,9.925887090755378,0.45545074921632417
2.03125,-6.9318704351629306,0.4191783734870868,6.849998192104346,-0.08087999292100474,0.36767539123955034,-0.03429817260765818,9.754435579289968,0.3780253050025658
2.0361328125,-6.964966036410043,0.5491257727819477,7.07061299984468,-0.09347473727521578,0.2935680497933141,-0.05011971509364272,9.940113641012934,0.31214053278801884
2.041015625,-6.901625981771722,0.8327590663461604,7.201953704287687,-0.09766041433124022,0.2302501695179152,-0.06064531505420242,10.009698597537858,0.25735297031198545
2.0458984375,-6.7766769559265985,0.8373185316543672,7.127239697385206,-0.10102922379523462,0.1549009568619,-0.07327505196282463,9.870258283977272,0.1989232106556559
2.05078125,-6.897632781646589,0.6547531978569682,6.8637407827353245,-0.11575560152971098,0.07645921837707177,-0.09120486475013279,9.752793306183296,0.166023187279452
2.0556640625,-6.854419620949179,0.5200681561504084,7.085267899227771,-0.1127700268981546,0.010822880301636063,-0.09319287414347079,9.871907638897474,0.14669398588815713
2.060546875,-6.594907747304791,0.26478995708826936,7.477312461609501,-0.10237728691382866,-0.041802737094533436,-0.09523621180634081,9.973621386706851,0.1459401032740942
2.0654296875,-6.4838783683903225,0.2694647512569255,7.839921867477064,-0.08926517404473211,-0.056223677880421534,-0.0909681515003071,10.177311277365694,0.13930031528686695
2.0703125,-6.1805875030322905,0.34586775310642986,7.982168930999995,-0.07984608462246319,-0.0465458261693084,-0.08460930582720284,10.101203256459074,0.1253022178410349
2.0751953125,-5.949820295692495,0.26371005094861716,8.110337783307052,-0.07329289539616023,-0.023689950547646114,-0.0825486420278547,10.062180852148485,0.1129041211521763
2.080078125,-5.853694764496069,0.09047387953415909,8.426241229119652,-0.07841901022343561,0.0342743709055099,-0.06451667086364987,10.260383480654244,0.10717590440355654
2.0849609375,-5.6234624186868265,-0.2849969123140593,8.696141816287565,-0.06158742862049969,0.11485643908145599,-0.04125155460717565,10.359895525698935,0.13669931865253077
2.08984375,-5.556515079089103,-0.5495667098862205,8.918056876032503,-0.055673779196071235,0.2174670301180181,-0.018011261304447263,10.521816470406161,0.2252018747970384
2.0947265625,-5.609232028872316,-0.5157883775076808,9.002408044741388,-0.04458915076346362,0.3221826388660468,0.006281381580418952,10.619457246400284,0.32531415724965806
2.099609375,-5.512288710575991,-0.25626253480477124,9.133948086403098,-0.04657351778373537,0.44461174595976916,0.022010937562145456,10.671457489986778,0.44758594546356223
2.1044921875,-5.3772217220018135,-0.11223418212816309,9.204767566170199,-0.03837926437710079,0.5625312997194749,0.033452540180178576,10.660903146845719,0.5648305086862037
2.109375,-5.107933597997911,-0.17042051041652592,9.328348854488034,-0.047003520733951636,0.716759379864676,0.05125922280819781,10.636640500785703,0.720125577596215
2.1142578125,-5.083517997060808,0.03629532385232911,9.224535367208654,-0.04621053447813191,0.8829058595729188,0.05939923326088185,10.532593475391423,0.88610746485792
2.119140625,-4.986671821233689,0.20928034761363332,9.450325658261688,-0.049303338430151084,1.0644711906938593,0.05147323636749182,10.687345281396246,1.0668548303587064
2.1240234375,-4.654481785054026,0.27121690612486177,9.663276297284078,-0.05084536187475541,1.2777376837414147,0.038121265508271766,10.729243593805666,1.279317032701825
2.12890625,-4.452289369062739,0.3718230938770118,9.654531620654964,-0.04715741715155074,1.4975042564626349,0.01940191745911265,10.638191286738358,1.4983722015965208
2.1337890625,-4.326450784737058,0.5832336383106623,9.922691717674365,-0.05827248276025403,1.7524813666412549,-0.00044113030372300023,10.840578803440913,1.7534499756958535
2.138671875,-3.9283049959303917,0.09201453096002143,10.094813842541134,-0.059902509469709264,2.0226448749506436,-0.025684755954807393,10.832604180460004,2.0236947169702577
2.1435546875,-3.9569277805635736,0.048846596910757205,10.381670075092059,-0.07100154758425252,2.339969678844616,-0.05315997597513181,11.110298690795288,2.341650123463625
2.1484375,-3.7025580077918705,-0.3122321581329425,10.70337804282836,-0.07452823316423611,2.679028371093408,-0.07429647106242046,11.329992332271734,2.6810944474737015
2.1533203125,-3.957445867025177,-0.4751939020325648,11.013025164102851,-0.0810837373394117,3.020305911105014,-0.09115353278521404,11.712126634395917,3.022768819419712
2.158203125,-3.6029064058387306,-1.2644159209099388,11.514823769068185,-0.026326427556859613,3.403274886692629,-0.09544974987592567,12.131399285448563,3.4047149205083245
2.1630859375,-3.7666215501346354,-1.7640639615693405,12.352348279316104,0.07444477209076299,3.77573602326145,-0.10304956765293057,13.033797128080899,3.7778755610579986
2.16796875,-3.097015837208738,-0.861412240447148,11.534959634231937,0.1353175099214001,4.218767538889521,-0.11817903663287505,11.974507585169174,4.222591225820794
2.1728515625,-3.2000432329827446,0.10064420749023739,11.941569517495815,0.11913245044491017,4.71871933297504,-0.13648001177466432,12.36331219741074,4.72219562044558
2.177734375,-7.153092633880176,0.6135591708871849,14.740338632604825,0.17219765374952667,5.055700398055374,-0.1054223783656702,16.395754697143797,5.059730469571911
2.1826171875,-5.472824330686066,0.5955048119670627,12.39617694220072,0.12010862521436894,5.370153857876662,-0.07930396796392844,13.563614375157313,5.372082246061885
2.1875,-8.955134287472639,1.4727714680225934,14.006327437548483,0.13486570605698572,5.616695600947225,0.02690396569498578,16.68953846550326,5.6183789526642185
2.1923828125,-12.43962879788248,-0.775663902916783,16.008964212572472,0.23675686113359184,5.61267034775401,0.13778986648611696,20.288739593154165,5.619351234008888
2.197265625,-11.106669668639565,0.269909397112181,14.690928280855337,0.31727951194872406,5.639890932422808,0.13646286313629577,18.418858161247744,5.650456453362222
2.2021484375,-16.252159041045395,1.6896179879469166,19.866961627882002,0.26648856729197073,5.539899331734268,0.19552773795875497,25.723212217068912,5.549750612285059
2.20703125,-21.673997840747674,2.5510004036689193,20.085989666907256,0.14879945417978654,5.153884815679493,0.08993198171412285,29.66001966215395,5.1568166277453455
2.2119140625,-20.934692675201877,2.4331864382609925,15.113636697866477,-0.020108029666767696,4.593594807444774,-6.204554703150418e-05,25.93460560493613,4.593638818158249
2.216796875,-17.94557449088005,0.6085624558399807,8.955553220748275,-0.1711029864086568,4.369939404266797,-0.13793060234615456,20.065291564291748,4.375462430416377
2.2216796875,-21.34802619114163,4.991258952001297,10.02692980337692,-0.5194209228762421,4.054830604562346,-0.16301112298241394,24.107886872669916,4.091212772886914
2.2265625,-29.990758972860444,2.9769678662927457,4.4722603017945435,-0.7823375949826586,3.6359033695342755,-0.2423418620531717,30.46816492098197,3.727006171609774
2.2314453125,-35.400824425028176,-1.960086783310951,10.183100117442029,-0.8521335581320183,2.3632266633958845,-0.22627220584156893,36.88842417577131,2.5223344295743946
2.236328125,-19.570985205136687,-26.402227892604998,-1.9975384926095425,0.029787556393276036,1.710078116153853,-1.062333710998782,32.92554114395366,2.013406907554615
2.2412109375,-38.60367586637859,-28.790951405319756,-5.475619498265337,1.1060935580905003,2.147520623507379,-2.2372440001686114,48.46797996729065,3.2924988236792547
2.24609375,-36.60027311086522,-13.39802022090348,11.143529165850783,2.053657085999429,0.23247477952477213,-2.335882639738549,40.537207352009695,3.118958104339122
2.2509765625,-26.677237591098727,-4.450432403314172,-0.6939027528199603,2.848591881219874,-0.7021020367019193,-2.371807189902306,27.054812050701273,3.7726505697937407
2.255859375,-26.730320785896286,6.922996059609406,0.6589546393742898,2.9093666666275335,-1.4283002588648144,-2.2644717010823445,27.62014020556448,3.9537688495104857
2.2607421875,-18.849416596497004,12.831925033376754,-3.589993368532459,2.5899300444122284,-2.1029856094950365,-1.8280955610476881,23.083475875106085,3.8042370442724254
2.265625,-13.569332249405292,13.946878245396482,-5.714002959345519,2.1894207009428888,-2.3677776661595504,-1.3123694671067005,20.28033580358258,3.4817018396576036
2.2705078125,-9.68988744253791,13.968252766219084,-6.731804241455826,1.8305815524539035,-2.4779310311236746,-0.7917954920879123,18.284506893414534,3.1808978475394207
2.275390625,-6.2786717773701275,12.865378363901907,-6.982587029274895,1.4669055992958109,-2.4558236465863224,-0.23627446833927615,15.927843587745878,2.870314868575737
2.2802734375,-4.160617910151101,11.654432240018078,-6.697920976612585,1.1225470738868095,-2.371376203774209,0.23033882420838264,14.07120029138914,2.6337412566264207
2.28515625,-2.6387431716224166,10.20908207452961,-5.850974600013469,0.7552311746762018,-2.238247197798977,0.6284870087327614,12.059113819027852,2.4444059740156963
2.2900390625,-1.5558387469418706,8.144222526773648,-4.924633904972184,0.40688153223995205,-2.121451009196923,0.9240362489663809,9.643703327565328,2.3494573746089618
2.294921875,-0.5031930304366474,5.824406905270742,-4.6892163177874515,0.09662348701336955,-1.989724100966633,1.1628271628117235,7.494375804498305,2.3066220121170398
2.2998046875,1.6391845266475527,3.261883106567834,-5.534921240145393,-0.15324058337878552,-1.7974516460949035,1.335073682761315,6.630396703661554,2.2442675497465556
2.3046875,4.104571708947592,1.0546098820924246,-6.394104667715742,-0.3414498512901246,-1.529301302700914,1.428957091534035,7.671002895254583,2.1206765064087847
2.3095703125,6.209676334919347,-1.0509794227199432,-7.146911637592701,-0.4884960133496894,-1.1226400147944262,1.4433102545396994,9.525911184080822,1.8926419230101665
2.314453125,6.360911894052203,-2.277483229866512,-6.90371019729676,-0.6120082961302601,-0.7072680286471197,1.3667276605181895,9.659676209608541,1.6561179658780865
2.3193359375,5.964946779128878,-3.2287960871000716,-6.376611222461273,-0.7550727037409216,-0.2803573984199315,1.196116561263953,9.309505085251942,1.4420228454893915
2.32421875,5.742804770581017,-4.00245443079977,-5.599881198026307,-0.8859666551316255,0.08419751302952284,0.9818032872198962,8.964268934812551,1.3251278542092726
2.3291015625,4.784658940127993,-5.043968990446905,-4.515372483398671,-0.9665378467730751,0.39791287870613246,0.7097760651447589,8.289944089906191,1.2634524648507006
2.333984375,3.5003755471360214,-5.9837781845601645,-2.905766314122139,-0.9758089176610971,0.6187532589184582,0.43244146453082355,7.516761816453472,1.2337196843102967
2.3388671875,2.3996915108790278,-6.548840994365788,-1.3149923693100238,-0.918510686599255,0.7641332868459304,0.19252391459325466,7.097537787727117,1.2102177569153871
2.34375,1.5165256836749068,-6.623810249307034,0.24273549530789099,-0.8018851813313718,0.8331157409892305,-0.024918177939932007,6.799531813937849,1.1565995839160272
2.3486328125,0.8161680472755973,-6.386660578312738,1.2268040230009563,-0.6557974432011611,0.8184490259826654,-0.20802182698643937,6.554434509156301,1.0692063295472627
2.353515625,0.24129527948064652,-5.890093237028154,2.074463008158921,-0.48992141999977307,0.7575093405314443,-0.3739623659170295,6.249385451786775,0.9765711699048052
2.3583984375,0.5466424545457513,-5.169209394755102,2.666801212449608,-0.30184083204891604,0.6676575184487361,-0.4950044025293535,5.842206128395241,0.8842532489940585
2.36328125,0.1645829240976563,-4.302790928327868,3.157058718593112,-0.1078532937337864,0.5557007627443309,-0.5700472586623896,5.339299304632576,0.8033614054660349
2.3681640625,0.24450722164485822,-3.105500636910232,3.272361727535324,0.05942745611768302,0.43744866018384,-0.6075985033473088,4.517993942351441,0.7510452011078598
2.373046875,0.5356373947546745,-2.0384578268230444,3.33243434385825,0.19729310485843157,0.33370227616192855,-0.6023615755130736,3.94301108120706,0.7163248187763177
2.3779296875,0.6680201264980635,-0.8509565473333355,3.0905551734604586,0.3262822440315342,0.24526130342130087,-0.5575907110287297,3.274432655447225,0.6910286613098572
2.3828125,1.059971939384961,0.2927793182229251,2.8546068826770608,0.39725464254327847,0.18162805898619097,-0.48174180571053554,3.0590914821380943,0.6502885284260569
2.3876953125,1.3358086734263135,1.2491395591974583,2.392815783739726,0.4440277342192618,0.1379057287045242,-0.3673999796974546,3.0116941785757314,0.5925886970294888
2.392578125,1.548678881486997,1.950772948161844,2.0629935390184415,0.45839343100177643,0.11533200346163697,-0.22096731963791816,3.2341712563307006,0.5217782718320314
2.3974609375,1.5639446376672033,2.479649421294666,1.6997664645770685,0.45255719255547655,0.11275358856079433,-0.07880400834206264,3.388774131793944,0.4730025961850605
2.40234375,1.472961899597182,2.811561971226573,1.345913494242419,0.41623101388946965,0.1225302607961521,0.10081299529154887,3.4476050541928713,0.44544941548270417
2.4072265625,1.4348439218977969,3.210666491035734,0.8275369003806403,0.3583622901479852,0.13596140301889653,0.26337971306605895,3.612751543956263,0.46505688616096746
2.412109375,1.2233134921908886,3.499484470063021,0.2757241720820103,0.2700982972610719,0.16944563503753288,0.4494886971924739,3.7173796248780997,0.5510943678902831
2.4169921875,0.9677572695601312,3.581557133422226,-0.49687150756363596,0.16267298445352615,0.22512357025985696,0.622773996951849,3.7431252888171764,0.6819021726295814
2.421875,0.7467004285712937,3.8559883330957945,-0.9405239466379364,0.03669089835981264,0.281182961480559,0.7640361507520973,4.038662259857691,0.8149609312755485
2.4267578125,0.5057857878279933,3.966912877053497,-1.5861363994180584,-0.13789298641078443,0.37732932618574094,0.9031920341987781,4.302097827207154,0.9885078384824254
2.431640625,0.3562818321741486,3.962309201382775,-1.9536168060730723,-0.34135099095034666,0.4740822699196098,0.9889791099023387,4.432093137138605,1.1486314367533808
2.4365234375,-0.4373305291780648,4.045480069552543,-2.286473922595169,-0.6113896288132411,0.586183061634225,1.0310846200003225,4.667454336531398,1.3343700212341687
2.44140625,-1.5823606245546327,3.7975662202510376,-2.2721122442405934,-0.8894243892269184,0.6581209266967804,1.0230768895862852,4.6997732279079925,1.5069456593764268
2.4462890625,-3.5784747517763003,3.286876308178121,-1.677707516449194,-1.230536707548597,0.6547299557841395,0.9363258266777477,5.1404027006756206,1.6791658516446224
2.451171875,-5.474309466812309,2.261538394273448,-0.6302448852076347,-1.5786354903644817,0.5510510972546957,0.7921217327444842,5.956494662344135,1.850190304457905
2.4560546875,-6.151707218526245,0.3248957011237988,-0.2621193939281271,-1.838716448481729,0.3773166475803281,0.6083355761644951,6.1658548065738525,1.9731493110471667
2.4609375,-6.296629498255191,-1.8388942955984164,-0.5354932533640343,-2.0091384756787964,0.16958268170056548,0.38487403946973975,6.581476148485248,2.0526869529091445
2.4658203125,-6.095132218914854,-3.897547077270389,-0.8546172005108761,-2.0403196280176803,-0.001990075650528272,0.17379046625115271,7.285044992654603,2.047708785700519
2.470703125,-5.11035791173203,-5.847202670876701,-1.8572104077498999,-1.904544980907299,-0.13447254366082687,-0.04421856656940553,7.984658261877232,1.909798348236601
2.4755859375,-3.100459444890318,-7.034328743244521,-3.6659288735908295,-1.6685209380573047,-0.16677049574004324,-0.2627233154833735,8.516669780123717,1.6972913890913321
2.48046875,-1.2332149294218422,-7.475837862782837,-5.6226970916501005,-1.3344406325821898,-0.04410756100298794,-0.5021651016005536,9.435236796033095,1.4264806581547054
2.4853515625,-1.0475160791922582,-7.788957131204136,-6.566516154330596,-0.9709765695906432,0.1743152407138596,-0.7323113835566817,10.241302531074197,1.228601344751765
2.490234375,-1.9129865846699763,-7.57101108938695,-6.942309311563232,-0.6128689149748586,0.3763579730384494,-0.9431759883350582,10.448702558986213,1.1861005757455327
2.4951171875,-3.1225840227177915,-6.794452676656947,-6.657695386455073,-0.27342767603815904,0.5711067355762734,-1.178570699702668,10.011994107723414,1.3378918086459206
2.5,-5.196434372227416,-5.674756921765989,-5.954326712805967,-0.00018503641518040714,0.6738553350987279,-1.3986139892607072,9.72932695045409,1.5524825724739209
2.5048828125,-5.986358734342573,-4.302698433633201,-5.753841740232675,0.19728303915837708,0.7296361920471394,-1.6268964330769122,9.351812630644018,1.7939012164115937
2.509765625,-60.1090680141954,54.59675997276475,62.85618845417634,-0.28407502237132287,-0.6193258920756998,-1.1247750552393831,102.6879091424389,1.3150597339358339
2.5146484375,-96.57482657556817,25.640249611830868,0.3604043998971702,0.35598352697776614,-2.82223705472812,-0.04410537597386216,99.9212160634043,2.8449413963647445
2.51953125,-55.617736135324925,4.663819870016064,-0.5061545173752678,-0.0060793703109666645,-6.334036649683408,0.22182336654962495,55.815230725976974,6.337922596894301
2.5244140625,-24.391226221811152,-19.06446808662709,-2.199235734594265,0.6998560358940599,-6.797685120761732,0.37609906041436936,31.035826037756866,6.843958794093325
2.529296875,1.9379269691535423,-1.2994528923141626,8.538513195450182,1.1837758602438477,-6.901869216488235,0.8854503551524684,8.851573100076232,7.058409615504304
2.5341796875,-22.363627010820736,6.296781412503612,35.58546358695332,1.3766590695854815,-6.804071611619371,0.9237749574356591,42.49831158921896,7.003137929664232
2.5390625,-14.820033538719109,4.998158638137802,33.10036608816894,0.6500085394735339,-7.5024729497500235,0.458202774449864,36.60941434974828,7.54450536785765
2.5439453125,0.6356700827911593,4.155842367689349,6.380996075275164,0.18490129317366216,-6.894464204905819,0.4669394141646623,7.641479775011813,6.912731556877162
2.548828125,-14.254580629472597,-5.368859808061977,19.500776840941064,0.42266150514985296,-6.845044587362118,0.7129429045618774,24.744656432469256,6.895039212076759
2.5537109375,-9.613585114455809,-5.632203274941041,20.612702281576578,0.9767696166544435,-6.374328529576239,0.6953557234362008,23.4313087093328,6.4861130632378226
2.55859375,3.626028195021588,1.5544152010901933,11.206258948335538,0.79277028375009,-5.819224555411291,0.5769841030592997,11.880426200504008,5.901251545586078
2.5634765625,-5.85688582750219,5.554773816883076,15.196070116671523,0.4463440092551814,-5.4113859040870365,0.48170125699137,17.20695123326393,5.4510876417956196
2.568359375,-2.1826606927237178,-0.43999384026888405,11.284059134808972,0.4099000271582007,-5.109530203335118,0.28664630583556794,11.501634355034138,5.13395393782485
2.5732421875,-2.3687129294547393,-0.5451349407637163,12.783753429873043,0.5264357565197262,-4.5828802782846365,0.20059520409087697,13.012775445753235,4.617376385647701
2.578125,-2.327683023292886,1.3972199535475542,10.997219857872969,0.3980739943906985,-4.210098851936578,0.12308772183609736,11.327364056033199,4.230667303789634
2.5830078125,-3.0514565589426335,0.6915274955842415,10.308962476984954,0.2767527762972863,-3.790469737190398,0.07109217734656627,10.773314474206478,3.80122441134753
2.587890625,-2.1731623877312614,0.03584870708918046,10.201355216675024,0.22011057807854448,-3.48986068367498,0.011719852980850144,10.430319657135755,3.496814781053804
2.5927734375,-3.23296009440167,0.8795518494972473,10.980296436385155,0.20747036363067684,-3.195303459698542,-0.06593386676243544,11.480093739113814,3.202710637277861
2.59765625,-3.8213945658247654,2.2559563535538416,10.763078449361519,0.196299861724188,-2.9413772589646823,-0.09965892821630726,11.642003831126553,2.949604332319972
2.6025390625,-3.5758466425195263,2.510315246120991,10.50492407824517,0.1457194024181511,-2.6384990822215486,-0.21141668632116567,11.377248864968227,2.6509637052174213
2.607421875,-2.27633153697931,4.686454343136149,11.20187820173213,-0.23799127542656845,-2.365719543716105,-0.31373872969999306,12.35421445592506,2.398270376169723
2.6123046875,0.33259147958957797,15.22861055106017,16.71155886959243,-1.1479123114325578,-2.1135902614765745,-0.09421840793503954,22.611886172100064,2.407040418551559
2.6171875,9.308107275078052,-1.307016526583355,15.601742360074432,-0.4839212878713638,-1.4596152122922013,-0.12738201563003224,18.214376682040587,1.5430108744645505
2.6220703125,-0.7933356775758378,-2.6354481510848347,11.32784726803855,-0.386228025332983,-1.148247974987548,-0.14960513623337413,11.65740503638694,1.2206667016032782
2.626953125,-0.8783933994862866,-4.145233410354702,11.575341659921595,-0.2363867843671141,-0.619335420284336,-0.07754397697433456,12.326518954453377,0.6674339989895598
2.6318359375,-2.340036248008347,-1.5074436566013842,10.457972302764171,-0.13282584942358894,-0.27227331593326853,-0.02734578983382284,10.822076543122549,0.30417635849294894
2.63671875,-3.448979015329093,-2.577821819446281,10.10745399514439,-0.021429535587046522,-0.005040847227338128,-0.0004801230971117853,10.986411964101567,0.022019665175343518
2.6416015625,-4.574721398566995,-0.33494985060213456,9.194645822330473,0.02946323513828618,0.14495631020612518,0.03537098740989414,10.27529946400709,0.15209050214835645
2.646484375,-5.449139788704905,0.3974673345641625,8.337975098624463,0.04131697990638487,0.17757128597011748,0.03741801346690548,9.968597366940552,0.1861149165474798
2.6513671875,-5.775419065974053,0.8260159574052052,8.067539414772023,0.033765287830511394,0.15692554526370595,0.03215006476990855,9.956051424053852,0.16370506431780912
2.65625,-6.097891195070715,0.9275129197516319,7.60501118764139,0.013156407197105854,0.0949732762156811,0.01313002799593012,9.791871751987863,0.0967750581536897
2.6611328125,-6.050004238891353,0.8504779338944145,7.59127955040481,0.001734400837303433,0.02848043256993216,0.003704824419491791,9.744402968834926,0.028772711196794684
2.666015625,-5.7950353940629435,0.7731097039715762,7.846526015922847,-0.00435747335417036,-0.026057417402629072,-0.007908018424022518,9.785096031790967,0.02757740617102741
2.6708984375,-5.660981189903253,0.4458869758759968,8.012434241019788,-0.02451413335686792,-0.06289902822430993,-0.017386835456220398,9.820622469801018,0.06971034738819284
2.67578125,-5.473877134526503,0.18588850060713977,8.173723541858372,-0.027967446887169577,-0.08471015800184616,-0.01839629955980498,9.839087455515365,0.0910846462999032
2.6806640625,-5.387407282466748,0.10399440694640935,8.26834113319415,-0.028012316104797184,-0.08800339757268938,-0.014115431887142147,9.869165980908528,0.09342661962873569
2.685546875,-5.3875993360952865,-0.049859313833382636,8.41917507205781,-0.03319036562887618,-0.0923342856780778,-0.00340695207507504,9.995560086930093,0.09817753309541459
2.6904296875,-5.353987550476558,-0.14126162606111048,8.565316607163748,-0.01635040187915552,-0.0696579300413222,0.007178398118317906,10.101969417821977,0.07191030704145757
2.6953125,-5.2099724285121445,-0.22809833644926675,8.533213418257581,-0.00761637313130166,-0.04029576435438808,0.015633803551325917,10.000578623183705,0.04388819406242455
2.7001953125,-5.132620584798711,-0.08877076005086935,8.603791497128126,-0.000943124344602978,-0.012011202832914954,0.028368770137712825,10.018827398522928,0.030821187455209995
2.705078125,-5.209292256556542,0.05081945187344674,8.546714746872935,0.004720301727576264,0.01738552963508614,0.040038664912285526,10.009277765919176,0.04390481268665318
2.7099609375,-5.122398785670843,0.19492269756939404,8.542075054649416,0.010050511036995148,0.028220994474965354,0.04534061746020676,9.962128809483126,0.054343434681050413
2.71484375,-5.199166907644157,0.30084791308799286,8.47096243461807,0.0103450605470917,0.04571324532375869,0.044229587101273386,9.943794575968573,0.06444359899091817
2.7197265625,-5.218507138519564,0.281637989511036,8.41918652542356,0.00017661438535907358,0.05244515786244482,0.037828179522162206,9.909330878610781,0.06466449521815512
2.724609375,-5.309882640233639,0.32506911598975036,8.319928714116728,-0.0018809201134306701,0.05136430949569424,0.04318210819192934,9.875309483312861,0.06713065334362585
2.7294921875,-5.252365839652289,0.2624389499580128,8.28739529607072,-0.008068783567443075,0.05037668972206887,0.03892625560282288,9.815148593339606,0.06417296557638691
2.734375,-5.348709239089476,0.20009990440760725,8.268299430606714,0.00012713844065069546,0.0491592984907312,0.03997840997404123,9.849543439684723,0.06336344416409526
2.7392578125,-5.339199851606539,0.16160801272989575,8.25431602237909,0.0031161220251726524,0.04364489370207713,0.0410535053571218,9.831932933176363,0.059999810540105926
2.744140625,-5.276567611567157,0.20958063446300487,8.259187162047473,0.005035469389191873,0.03596604741420987,0.03999799244988787,9.803074129042953,0.0540254747188025
2.7490234375,-5.358330850505702,0.2097309304599148,8.244721090907664,-0.00012493107777487934,0.033845422478703,0.04322333153449203,9.835198139007185,0.05489794731569388
2.75390625,-5.343981697377002,0.2048836327061993,8.188357589947746,-0.00224722516577686,0.03061432241589689,0.0378943662556872,9.780046917357101,0.04876750713180193
2.7587890625,-5.339029707797949,0.26738909225559915,8.183539245142128,0.00688103231071375,0.023915212955952097,0.038955925006174695,9.774817119731075,0.0462260760769972
2.763671875,-5.271635723899397,0.28650323384591375,8.20730657974158,0.0006829337929943942,0.020705156333435976,0.04539079669768951,9.758694000857181,0.04989483262030867
2.7685546875,-5.27641826192358,0.2769030312863292,8.249634266477715,-0.004401188281427697,0.02407135627566729,0.04218856202143054,9.796618319304857,0.04877166612567972
2.7734375,-5.233271274209692,0.22873032356596143,8.235818751871097,-0.0034574180356281214,0.019694677771013098,0.038991118767143985,9.760540779283621,0.04381941823770202
2.7783203125,-5.281187546514793,0.33460148808722445,8.164832072887647,-0.0004316232190129683,0.01636568345182848,0.04006151831610092,9.729716482804003,0.04327755934938953
2.783203125,-5.266756735659729,0.32976843281121565,8.1790147627816,0.001480084126547671,0.008698228642063753,0.03580030492869664,9.733640440333476,0.036871556293692535
2.7880859375,-5.329479982066172,0.24813176417090307,8.164810832727321,-0.0007174643286452977,-0.0011370961750109085,0.04438090151519136,9.753412848119165,0.044401263068467076
2.79296875,-5.3678874247158035,0.31070405773859994,8.08925738549599,-0.007011897870197077,-0.00757242225400919,0.03479602965874709,9.71323002222838,0.0362942415618166
2.7978515625,-5.425471359386899,0.31083304870057454,8.192473249985879,-0.010236913640234963,-0.015156027313526934,0.028408803710470512,9.831021035855136,0.03378697519852948
2.802734375,-5.252375900669167,0.3633817167569068,8.070833538934993,-0.012527336078139023,-0.02934445464489209,0.03058820397056571,9.636277958174587,0.044200332462162595
2.8076171875,-5.377231131009892,0.416521194735177,8.107797136324635,-0.012660033945910996,-0.035873554360641276,0.0220546555928441,9.737786141919502,0.04397267555308038
2.8125,-5.372597519228068,0.31553713648725856,8.164475184366239,-0.010734171415109177,-0.043558255159867096,0.02313664792552054,9.77870251230961,0.05047621722921131
2.8173828125,-5.305044837045243,0.4356234793303943,8.11747622292796,-0.024330528864322166,-0.05755752890395347,0.018930894896422752,9.707043255729578,0.06529335762484924
2.822265625,-5.391578476229936,0.48385827357649014,8.037041238157576,-0.02655358102433668,-0.06624303185713913,0.010410352985472458,9.690060327887531,0.07212216985174599
2.8271484375,-5.338664990075986,0.45492110242030137,8.112584287518235,-0.02893052126344492,-0.08478385936481284,0.007254078888814953,9.7222590434414,0.08987713574592901
2.83203125,-5.28119174028203,0.39228334040045354,8.042426234350161,-0.025992622947660547,-0.0924667405841884,0.0029921999844963977,9.629407673981957,0.0960971790569841
2.8369140625,-5.343607207613127,0.3828035833162196,8.145642071063861,-0.03331761368810252,-0.09999671504212071,-0.0012471934429155419,9.749469796996154,0.10540854753087521
2.841796875,-5.305241642268486,0.3346446315879767,8.155320963233883,-0.029302820958403888,-0.10440803727668845,-0.007658987250236905,9.734825931965723,0.10871225160850055
2.8466796875,-5.31986312224465,0.2913756111559699,8.075399973868635,-0.026271653055225986,-0.10662533370987588,-0.011933982192566564,9.674602220461193,0.110460768936166
2.8515625,-5.233057579613708,0.3345189990797751,8.202666609756202,-0.030385298582496403,-0.10767225394343914,-0.007649695533590648,9.7355294721503,0.11213874656408702
2.8564453125,-5.223393956466239,0.35854347444804696,8.193250025328828,-0.03148666789624045,-0.11091129165921193,-0.015119823338730076,9.72325788123858,0.11628127076411456
2.861328125,-5.223384742251794,0.3441244356175104,8.230906104048586,-0.028415587286397818,-0.11094582399270653,-0.018334431318108,9.754485382963171,0.11598522679207869
2.8662109375,-5.252343506431125,0.26724972722792256,8.296790973652005,-0.029534271617649967,-0.11639513978234103,-0.01831898795973359,9.823200862586797,0.12147298911611872
2.87109375,-5.218583217971251,0.32969353979187654,8.254473934772218,-0.02853519936288257,-0.11749329143819506,-0.02152459597701176,9.77131764773337,0.12280976902361508
2.8759765625,-5.218714985988367,0.32005679327583636,8.160433309365521,-0.022369408773070747,-0.1164772644217328,-0.025815527941909222,9.69175393066208,0.12138280380245998
2.880859375,-5.2235391123425785,0.2335392253114936,8.325208759436066,-0.030651307851946884,-0.1207304768753381,-0.02471829352058375,9.831022445103194,0.12698954584591246
2.8857421875,-5.290879081158103,0.2576964426904955,8.25901937953121,-0.02443985586110972,-0.1175388353552616,-0.025808969332650724,9.811789338315608,0.12279571356198399
2.890625,-5.237981368721957,0.23356340231462014,8.311036550741346,-0.02349339552111585,-0.12191904102988615,-0.027939359062533184,9.826715078282149,0.12726664914102126
2.8955078125,-5.271626086283735,0.22882233103119845,8.334415497669324,-0.025572628042513236,-0.12297063384090784,-0.031137837376559143,9.864323744715415,0.12940363599499208
2.900390625,-5.209142080232994,0.21908651449269267,8.330006252947966,-0.02141941892606993,-0.12085994574487428,-0.026879075657621973,9.827113731255933,0.1256519108521339
2.9052734375,-5.238217396539104,0.12296394953089662,8.334793015274958,-0.02544725529365482,-0.11642980264453831,-0.025810332171611192,9.84493860995412,0.12194111280710658
2.91015625,-5.127289085008574,0.19491746359124332,8.471507873620897,-0.026439886127814977,-0.11422532571838302,-0.026886049883254447,9.904217880866806,0.12028862079285539
2.9150390625,-5.069707939474817,0.17075357624999504,8.41537520902975,-0.02610296087290851,-0.09455406268648307,-0.025865564506119085,9.825967396858625,0.10144388973256187
2.919921875,-5.156180157270693,0.18535090954727318,8.457293656800692,-0.021792001937820906,-0.08370878108606469,-0.018422788875006892,9.906884715755163,0.0884389649945417
2.9248046875,-5.1228084588100975,0.08909984010908431,8.405916338715025,-0.02168310584159498,-0.07714660247444154,-0.019506421130465357,9.84431484566803,0.08247578928149996
2.9296875,-5.15159931049071,0.09877829414178109,8.438690991000476,-0.01418185611816413,-0.059788781789894455,-0.012087945193763806,9.887377723584475,0.06262540929912842
2.9345703125,-5.1900744450575536,0.09404243336386027,8.44323663019277,-0.007842940456137523,-0.048941762582033234,-0.014268038026124667,9.91130473338104,0.05157891767718247
2.939453125,-5.09373258467652,0.19002938434673505,8.391712936408286,-0.01486632139384384,-0.040110144325884584,-0.008928345845620807,9.818506445391412,0.043698358655301514
2.9443359375,-5.1562842826444735,0.13245704653962323,8.476221267553269,-0.013639689152655331,-0.029211650470655194,-0.0036158887224137974,9.92225475631153,0.03244127455347081
2.94921875,-5.1418745549293865,0.18049601580544744,8.363305520718711,-0.008290737102949045,-0.016164344310168242,-0.005796927409080256,9.819181838790643,0.019068998822015546
2.9541015625,-5.209083313555264,0.20948300042463477,8.4005734062003,-0.012406287385179538,-0.017207122049759323,-0.002578306250416432,9.886762141772527,0.021369339695926845
2.958984375,-5.2429922594049945,0.1325926135732447,8.344157221482362,-0.011384469772733132,-0.018332996924368752,0.0027672646712866658,9.855531866427663,0.021756899641174516
2.9638671875,-5.243121930538492,0.09411494090059003,8.311319515344408,-0.009392832418202308,-0.021635294475633282,0.0006338408704163683,9.827370822694094,0.023594766837856447
2.96875,-5.242749672084487,0.2528069744071914,8.306270556379513,-0.00726913578311951,-0.017290701850257842,-0.00045179005016049813,9.825704353695368,0.01876200468386474
2.9736328125,-5.242836908085526,0.20472293917093753,8.329890765323116,-0.010430522797234415,-0.02160625025321127,-0.0036394436383794795,9.844609209553314,0.024266672739066634
2.978515625,-5.218746802276481,0.2335273683163963,8.311120511439944,-0.0083857737734197,-0.02274446382026827,0.0006330263877163929,9.81654610205145,0.0242493826448842
2.9833984375,-5.184855861454426,0.2959939688446809,8.381677377926346,-0.005392223850408491,-0.02714815504308442,-0.0036407325542724394,9.860165231946826,0.027916900505392847
2.98828125,-5.228378877988341,0.1998946313874976,8.367588852168359,-0.006505447313519026,-0.032604803787626105,-0.0014859196633801078,9.868761156010635,0.0332806555227596
2.9931640625,-5.25240408101751,0.2143634602083829,8.353343219526645,-0.015721906896737105,-0.030260374119062426,-0.00787996468620134,9.869753961805415,0.03499946344947409
2.998046875,-5.12737241621734,0.18048228328597246,8.429211602706271,-0.011576991025072005,-0.02813876280113943,-0.006829333217960236,9.867833095080428,0.031184234564525085
3.0029296875,-5.20448711645869,0.161368118223008,8.316043779342618,-0.011547183292824285,-0.027060027452820278,-0.0025541663956670587,9.811692512248149,0.02953144584544113
3.0078125,-5.20433609333271,0.24311145287389654,8.278240963833621,-0.005383915275512008,-0.027158967009536194,-0.00043191609061109883,9.781282676938492,0.0276908393557923
3.0126953125,-5.228506317811969,0.18064487581826183,8.297084586111415,-0.00851065587274589,-0.02928458527589298,-0.0046934010426068346,9.808747295941858,0.030855246093850798
3.017578125,-5.170652845430748,0.20459730666273593,8.377236411845434,-0.01043359127217485,-0.021602844841285832,-0.004709644700279388,9.846603516228512,0.024448384103542362
3.0224609375,-5.295659522298667,0.21925531397429637,8.36254998553609,-0.007499775849991171,-0.030396045113443935,-0.003625787018992549,9.900723454849556,0.031516861008763615
3.02734375,-5.223523338624773,0.2287350945311802,8.348734637586588,-0.005471565514779981,-0.03151278038187727,-0.005765837102746707,9.850831734501709,0.032499818985255426
3.0322265625,-5.252466194660046,0.19512509862131244,8.339275906152796,-0.01056820705060686,-0.030365070355929207,0.0006571593570375779,9.857484342827997,0.03215830151618038
3.037109375,-5.218763268248005,0.18545567656082151,8.3958807524569,-0.011695736494096703,-0.03580432934271428,-0.002534092795482206,9.887400946025172,0.037751316243503495
3.0419921875,-5.276488185150664,0.19036695983729265,8.36739991282033,-0.005616544888919743,-0.04137864599824848,0.0028085525224365083,9.893985468379157,0.041852429898500514
3.046875,-5.290948312131467,0.22403619377734713,8.268498906706347,-0.008719936767074691,-0.042419451965821496,0.0006837048891375267,9.818981639048578,0.043311830424005965
3.0517578125,-5.190066635473008,0.16134014322582635,8.31140367047631,-0.009847678396790169,-0.047858824834679896,-0.002507362066783022,9.800114963411058,0.04892576773947572
3.056640625,-5.2091638556266915,0.21908271649863756,8.311193935386935,-0.006699785546858112,-0.043525131413523946,-0.004663674302334126,9.81118392157891,0.04428401572731034
3.0615234375,-5.136927027970075,0.20454564114800955,8.433820295751072,-0.0077448863981115015,-0.04460283044281044,-0.004661423757298531,9.87720522167201,0.045509610196911784
3.06640625,-5.117860797424533,0.16121830871167986,8.377561634559658,-0.005601974591600261,-0.03916433793817743,-0.005747601913631007,9.818453514974983,0.03997827426513398
3.0712890625,-5.238153051586698,0.16143022822138595,8.311193768729817,-0.010764964581122404,-0.04128136281155841,-0.0035895810446741425,9.825489757350724,0.0428126204534203
3.076171875,-5.146697989029877,0.14685427037699278,8.419794851621777,-0.0035888105869981497,-0.0413768524969077,-0.006816666882443467,9.869296414152771,0.042087889366971214
3.0810546875,-5.209325766449519,0.13733748285072145,8.339590592115416,-0.0013816624460882031,-0.03266980360276063,-0.004704093194696284,9.833855183461397,0.03303564062254991
3.0859375,-5.122677114194197,0.14199845060930316,8.41050412491374,-0.00961933156969781,-0.0347490469830339,-0.0004052675147680308,9.8487849002532,0.036058175880587864
3.0908203125,-5.223709256151167,0.12775814578579014,8.395985536673027,-0.00446823985119142,-0.03373135942049427,-0.0004198836782373163,9.889187715309923,0.03402860675998347
3.095703125,-5.2091977687984246,0.161394217695812,8.400678218192613,0.0027084545654757243,-0.03494539766311294,0.0038391788797968863,9.886009509077763,0.035259833216245144
3.1005859375,-5.170936194401311,0.10841024621995257,8.330415241927481,0.006899036981821952,-0.030648459350053326,0.008094324927315747,9.805414423214996,0.03244137586227475
3.10546875,-5.2909125709286196,0.15674607990349126,8.437956501544873,0.000778705631812608,-0.028370398739668637,0.008102477551170533,9.960794902453268,0.029515013968758864
3.1103515625,-5.1516340704648735,0.127613523307313,8.349269595390185,0.0069759456026569555,-0.026279916679873522,0.00915143947631931,9.811519840667518,0.028688790184339577
3.115234375,-5.180321912426642,0.18057188179595024,8.38194991688255,0.009068602659322956,-0.024127769661958762,0.010208657197198594,9.855223271442933,0.027723735405300848
3.1201171875,-5.166065439147405,0.12763959930746707,8.344503545475979,0.009092697248599851,-0.023041828939570068,0.012344371010307055,9.815052898957083,0.027676461474964845
3.125,-5.219058062742884,0.0844597378451559,8.34907006373818,0.009231480717102763,-0.015400601764018562,0.015531824187596941,9.846454764980512,0.02374102637879317
3.1298828125,-5.1417655435346505,0.22858384903575643,8.358497629336139,0.014309258096354999,-0.018760534024748053,0.016594268905729286,9.816032095523019,0.028845836175737466
3.134765625,-5.223507141505753,0.18066909976668813,8.461713354945093,0.011275899466815875,-0.015420245536777682,0.012317534222748474,9.945765987706942,0.022729969875229277
3.1396484375,-5.146815656811591,0.11799245525307511,8.377530024304845,0.011212080685823743,-0.01980731743882696,0.01660501786394625,9.832936638300215,0.02817387434645534
3.14453125,-5.228378877988341,0.1998946313874976,8.367588852168359,0.012355552280201952,-0.013271353736989995,0.01872368722969757,9.868761156010635,0.026064630548631642
3.1494140625,-5.17063762954041,0.1949861966065678,8.410178929975702,0.01238206039200372,-0.012189197578052185,0.021925788325731412,9.874442908189485,0.027975563459076216
3.154296875,-5.19483438100807,0.1853906945942524,8.297221036134728,0.023716995854662404,-0.009062919397649376,0.01761703071937018,9.791044422237205,0.03090294762228347
3.1591796875,-5.108232068677479,0.1660091699854502,8.377593133709723,0.02067748488185679,-0.006834849677860808,0.018685815736909275,9.813544753348024,0.028695526844999663
3.1640625,-5.16579953737705,0.21420985270299964,8.396048757182651,0.021770217821478356,-0.002466847256520706,0.015465859061963665,9.860274106451012,0.02681828696815181
3.1689453125,-5.141889212992256,0.19491410513747026,8.320946362608696,0.012437001257490822,-0.007792216852106514,0.014435706122059843,9.783412725449057,0.020586093728329254
3.173828125,-5.093650234696436,0.2429194493603299,8.353973008094677,0.021767332808602456,-0.003582233060459693,0.021881113577861586,9.787397386040633,0.031071406513178478
3.1787109375,-5.136926893543823,0.25261448440804296,8.334950816563342,0.019650844303466867,-0.00682016279533433,0.018689014075332067,9.794040897498665,0.027963360840605675
3.18359375,-5.088735236401418,0.31503222097184275,8.297399827597761,0.018642435444331956,-0.005712658846621376,0.01868901952371133,9.738650599824558,0.027008412044243348
3.1884765625,-5.088630129798955,0.32947119927116875,8.35850841607342,0.014722867024446083,0.005278952204378785,0.01867058110733099,9.791188426877358,0.02435612343294931
3.193359375,-5.064684487612529,0.28614720181596215,8.363410777130007,0.01161976158892516,0.00423878394337167,0.01654365747533619,9.781592355398196,0.020656203701631456
3.1982421875,-5.127190826884435,0.2910722410845582,8.358424344270079,0.007549069685357225,0.006489562142252387,0.015480300732245399,9.809998284592336,0.018404960762612135
3.203125,-5.141696312561287,0.26224409794890485,8.349018102161004,0.010559002341515194,0.0031829940790415907,0.010137701911723963,9.808767313364484,0.014979885907653263
3.2080078125,-5.035802071737389,0.31493977396632367,8.330552275250707,0.012687921524062689,0.007520365174042143,0.011189722877106394,9.739434828450019,0.018513485436787894
3.212890625,-5.107779268152047,0.31510148741804883,8.461923645558192,0.008665632732114438,0.011943495224899377,0.014392799054992116,9.889026735872129,0.0206129312198064
3.2177734375,-5.136793452044304,0.27667216875164724,8.400741522030795,0.008681714419781841,0.013040293505210227,0.013323114539073151,9.850667620922922,0.020565184195380753
3.22265625,-5.117664550028757,0.25739017717824275,8.34913353423348,0.011782007138205965,0.014084000042922387,0.014382454565031899,9.79616102983158,0.023324445303779057
3.2275390625,-5.199137457092165,0.3200805776839806,8.45681127165037,0.01690886219659494,0.014015767847671024,0.012229906624675038,9.93232796268136,0.025138058500837262
3.232421875,-5.2042163286673775,0.24313234184119967,8.381708710419296,0.006756862976211174,0.020726230274026813,0.012241478366307188,9.8689422856523,0.02500171216625065
3.2373046875,-5.146640626982045,0.2189675050014376,8.32087296643789,0.008857308693364903,0.022867178713962096,0.01650676578564976,9.786357005298017,0.029560668062953793
3.2421875,-5.1321576089526095,0.1949160276071477,8.41975301015341,0.016089708691022643,0.026051321893379564,0.013272232219295757,9.862518680992991,0.03337217772692336
3.2470703125,-5.141742652486019,0.238201605581521,8.358476666937676,0.006817192331180941,0.025116118121162406,0.006887166111006192,9.816230931525457,0.026920745862570133
3.251953125,-5.2189413761898535,0.15177643767739757,8.311298691826877,0.013070044678490527,0.028254492610301097,0.021827329598098327,9.815195928757797,0.03802071459017199
3.2568359375,-5.243087036138076,0.11334855499509158,8.301871431766966,0.013046299943784687,0.02716893096117596,0.01969324281859476,9.81956612244284,0.0360025077530507
3.26171875,-5.13705502562117,0.18048890630291903,8.372732669673876,0.016071596040769368,0.02383989669772646,0.020759773975859628,9.824691493343817,0.03546272817176819
3.2666015625,-5.1514852786487655,0.19012894085478257,8.349133339800177,0.019232756416041958,0.029274014037001153,0.016464086037698025,9.812338004576095,0.03870313871321119
3.271484375,-5.185200208412591,0.1901825053665365,8.301955614675052,0.019257376617224136,0.029241597862903552,0.026083666017132662,9.79004277900276,0.04366091195390561
3.2763671875,-5.1320572539448515,0.262229878943848,8.367872400071333,0.017204136799610997,0.029271549026748164,0.026086628564215064,9.819779257755973,0.042817263986532024
3.28125,-5.209135520729635,0.22870142254291587,8.31587605237873,0.022357815021762664,0.03028546833521255,0.027141500538874732,9.81535489590297,0.046408431737479085
3.2861328125,-5.060039295880139,0.23804086510095945,8.321208864784648,0.013215187427870019,0.035883087454644164,0.028218675734274924,9.741826220000016,0.04752400240118178
3.291015625,-5.127005043784292,0.3439803465699148,8.41004292437137,0.023396532378247292,0.03136984194277602,0.024995509794916236,9.855624038465796,0.046435333752960974
3.2958984375,-5.2571391634620275,0.2384197085678916,8.367379061526613,0.018167435470980688,0.025988750000678882,0.022887081480718507,9.884704775597186,0.039106129147424985
3.30078125,-5.1992540092189445,0.3008327211117724,8.395713164373943,0.01611958102004396,0.0260113795105199,0.02502830310195555,9.879814882724915,0.03953288140858713
3.3056640625,-5.151302708087177,0.26226401394504434,8.35838228059222,0.019201220353983518,0.025962027660115884,0.026089994098581894,9.821774602986716,0.04151387160180186
3.310546875,-5.228266519628799,0.2768243402729349,8.306281120907304,0.011974298974944758,0.02388952891479614,0.023977699434967966,9.818640872095287,0.03590297338530483
3.3154296875,-5.233115499489008,0.25759878517947554,8.311005134919839,0.009860940969020172,0.01952977367116171,0.029337364126276397,9.824696500034083,0.03659687350470025
3.3203125,-5.242519222542016,0.31533663443236776,8.376680491643375,0.020153612948301924,0.021574819704558025,0.026098214697990212,9.88697228937233,0.03940504752663725
3.3251953125,-5.2233309960212715,0.29125810806676006,8.386223017118644,0.015002691778563337,0.021676038213357913,0.018630025221947417,9.884166857776215,0.032280167796960434
3.330078125,-5.228318303401956,0.2527808984070373,8.311036606293719,0.014880801144214965,0.014013691671219231,0.02185718885179032,9.822043572263441,0.029925883469874296
3.3349609375,-5.228223950070089,0.31528682096936916,8.26386955680113,0.012058821383781886,0.02936529734260171,0.020758622705192263,9.783929246646665,0.037929622695221876
3.33984375,-5.218520257526283,0.26240817341058953,8.447446926562035,0.02020413691140674,0.024861679775018544,0.023951204606172564,9.932832994909722,0.03999963089401171
3.3447265625,-5.1515076118699294,0.18531816358487274,8.33973766221889,0.0171220052389303,0.024910495645088883,0.02289264963156175,9.804264264672822,0.0379179280003456
3.349609375,-5.175454927538758,0.2142212232125151,8.363085221101548,0.01721773030207641,0.03037230123956169,0.023947147953787655,9.837297334881518,0.04233666040752762
3.3544921875,-5.223541767053664,0.2575731721922534,8.27342248014707,0.014027032559054574,0.023859105290573546,0.023973334798201892,9.787811403280623,0.0366160528870348
3.359375,-5.27173063505873,0.21919033200772722,8.263890269213915,0.01720496156182094,0.02927212095343976,0.02609005160928884,9.804645361861429,0.0428200719339879
3.3642578125,-5.194618031701,0.2671454232273062,8.315855173308826,0.017127326116266783,0.0249029698964339,0.025030376470940863,9.80861205450963,0.03924312622399848
3.369140625,-5.208898511683804,0.3008459906183154,8.372155787073355,0.019195988801355344,0.025969373737773343,0.023952424425276987,9.864893539117325,0.04020712616244187
3.3740234375,-5.184920206406834,0.2575276901541916,8.405276624471488,0.018198718838543907,0.028181750652480554,0.020742802512071466,9.879189905649595,0.03944196107266675
3.37890625,-5.194726485268268,0.22386456927285195,8.311246424711651,0.008942798835413712,0.02722524404847236,0.020771127028399755,9.803678683759761,0.03539247494227375
3.3837890625,-5.204112761121067,0.2912192255729949,8.372197739646467,0.017148700855355494,0.025992577033797735,0.02609502554169353,9.862114036024318,0.040628098157629994
3.388671875,-5.194861734676443,0.13731710384165002,8.37257511837117,0.015093817335935195,0.026027369053193875,0.025032324076082215,9.854210193728415,0.03913904074261067
3.3935546875,-5.165893198455197,0.20457975267655595,8.334929687507762,0.020275940999579436,0.028118883209275122,0.03035769762236224,9.808127156024696,0.046080095282953336
3.3984375,-5.209052747348337,0.238329623572332,8.367588963273104,0.01912734067740758,0.021590225690979258,0.0261012371571991,9.85939027488106,0.038900740197499874
3.4033203125,-5.194767381344576,0.1998230264039819,8.32540806887858,0.01712265350456063,0.02379231113518511,0.03037681184181931,9.815190110309194,0.04221386063680967
3.408203125,-5.175514944297675,0.1661419354688301,8.410220826996442,0.01921500620235554,0.027063171371011354,0.02394942791171763,9.87650608465436,0.04092929031038591
3.4130859375,-5.185066766913072,0.2142401897101408,8.367746320142507,0.019207562410923786,0.024837034815054733,0.035711346959375063,9.846318840789785,0.04755112042661708
3.41796875,-5.209290314221636,0.16137807622107775,8.320725868558227,0.01825036632723516,0.02923194306284693,0.0335670818660556,9.81820897317949,0.04810749786998158
3.4228515625,-5.2333100734023805,0.17584785454047683,8.311183315306772,0.02134044268900165,0.029171983356666868,0.037834417969616764,9.823147402587166,0.052324585905899654
