time_s,acc_x_mps2,acc_y_mps2,acc_z_mps2,gyr_x_radps,gyr_y_radps,gyr_z_radps,acc_norm_mps2,gyr_norm_radps
0.0,-3.6918114589999997,-0.6512596264999999,9.011821017499999,0.07556001570781491,0.037247944231436986,0.04576166032266532,9.760457417629942,0.0958689463732677
0.0050000000000001155,-3.6726884914999998,-0.555448656,8.987794724999999,0.06385356881591334,0.03192678440795667,0.03831207147637793,9.725102466492913,0.08102106290324644
0.010000000000000009,-3.5864880379999997,-0.40226878299999996,8.896887079499999,0.05746810721456689,0.0276699263623425,0.03618364245357084,9.601006005928099,0.07333119495092294
0.015000000000000124,-3.466846908,-0.38304774899999994,8.8537378195,0.04576166032266532,0.02554132280661022,0.03192678440795667,9.516008955332467,0.06136618196393363
0.020000000000000018,-3.4428206154999996,-0.34950900599999996,8.925620563999999,0.04150480227705115,0.028734053607283445,0.029798355385149588,9.572976171927232,0.05861942026686227
0.025000000000000133,-3.5338263275,-0.44531997649999994,9.007015759,0.04789008934547241,0.03937637325424407,0.028734053607283445,9.685688993420985,0.068334510058104
0.030000000000000027,-3.596098555,-0.5698644315,8.9925999835,0.050018518368279495,0.04789008934547241,0.02554132280661022,9.701727926034934,0.0738083464656045
0.03400000000000003,-3.5625598119999995,-0.555448656,9.030943985,0.04789008934547241,0.05108282014614563,0.020220337516055103,9.724109464816681,0.07288194029294211
0.040000000000000036,-3.5577545534999997,-0.6177208835,8.997405242,0.04044050049918502,0.05214694739108658,0.019156035738188967,9.694972802521473,0.06871456838281172
0.04500000000000015,-3.5769755874999998,-0.5602539145,9.021333468,0.03937637325424407,0.05640397996962595,0.01809190849324802,9.72075595533292,0.07112822843287728
0.050000000000000044,-3.5769755874999998,-0.588987399,9.021333468,0.050018518368279495,0.06385356881591334,0.020220337516055103,9.722454322371933,0.08359421319415405
0.05500000000000016,-3.643955007,-0.6799931109999999,9.050066952499998,0.05640397996962595,0.06811042686152752,0.02234876653886219,9.779801151801626,0.09121352185658671
0.06000000000000005,-3.6918114589999997,-0.7039213369999999,9.073995178499999,0.053211249168952715,0.06811042686152752,0.02234876653886219,9.821525624714768,0.08927449048405947
0.06500000000000017,-3.6871042669999996,-0.6416491095,9.054872211,0.05108282014614563,0.06172513979310626,0.024477195561669274,9.79781415485065,0.08377696878692958
0.07000000000000006,-3.643955007,-0.6320385924999999,9.06918992,0.04895439112333855,0.0627892670380472,0.024477195561669274,9.794288472394477,0.08329560353341713
0.07500000000000018,-3.643955007,-0.6320385924999999,9.06918992,0.04895439112333855,0.0627892670380472,0.024477195561669274,9.794288472394477,0.08329560353341713
0.08000000000000007,-3.5864880379999997,-0.565059173,9.030943985,0.03937637325424407,0.060660838015240116,0.02554132280661022,9.73345455508558,0.0766980782684952
0.08500000000000019,-3.596098555,-0.541130947,9.016528209499999,0.032990911652897616,0.06172513979310626,0.026605624584476358,9.722269718115388,0.07487491164400728
0.09000000000000008,-3.5769755874999998,-0.5123974625,8.930327755999999,0.029798355385149588,0.07023885588433461,0.0276699263623425,9.63369396144238,0.08116072747639376
0.0950000000000002,-3.5864880379999997,-0.6225261419999999,8.9208153055,0.026605624584476358,0.07449571392994878,0.026605624584476358,9.634904304612139,0.08345855206623794
0.10000000000000009,-3.6391497484999995,-0.6559668185,8.9782822745,0.019156035738188967,0.08194530277623617,0.023412893783803134,9.709956537471294,0.08735072951969801
0.1050000000000002,-3.6391497484999995,-0.6559668185,8.9782822745,0.019156035738188967,0.08194530277623617,0.023412893783803134,9.709956537471294,0.08735072951969801
0.1100000000000001,-3.5816827795,-0.5937926575,8.94954879,0.011706446891901567,0.08620216082185034,0.01809190849324802,9.657922385153974,0.08885477242172826
0.11500000000000021,-3.605709072,-0.5506433974999999,8.954354048499999,0.012770748669767708,0.09152332064533064,0.013834875914708653,9.668753926385849,0.09343989530767767
0.11900000000000022,-3.663176041,-0.5027869455,8.882471304,0.010642319646960623,0.09365174966813773,0.00851371609122834,9.621327865024925,0.09463821926184823
0.125,-3.5673650704999997,-0.5075922039999999,8.848932561,-0.001064301777866142,0.09258762242319679,0.0031927308006732273,9.554441420664583,0.09264876736481922
0.13000000000000012,-3.6344425565,-0.588987399,8.8537378195,-0.001064301777866142,0.09471605144600387,0.0,9.588782624980276,0.09472203091042981
0.135,-3.6344425565,-0.588987399,8.8537378195,-0.001064301777866142,0.09471605144600387,0.0,9.588782624980276,0.09472203091042981
0.14000000000000012,-3.596098555,-0.5315204299999999,8.8729588535,-0.012770748669767708,0.09258762242319679,-0.00425685804561417,9.588734932236083,0.09356110670565701
0.14500000000000002,-3.596098555,-0.44051471799999997,8.8058813675,-0.01702760671538188,0.0904591934003897,-0.007449588846287397,9.52205464658397,0.09234880310584191
0.15000000000000013,-3.6152215224999997,-0.46444294399999997,8.8201990765,-0.02554132280661022,0.08833076437758261,-0.00851371609122834,9.543659971628811,0.09234265789937782
0.15500000000000003,-3.6344425565,-0.5075922039999999,8.868153594999999,-0.03086248263009053,0.0851380335769094,-0.013834875914708653,9.597446052287621,0.09160994152935027
0.15900000000000003,-3.6487602655,-0.5363256885,8.916010046999999,-0.03937637325424407,0.08088117553129522,-0.015963304937515736,9.648644043462353,0.09136241256944701
0.16500000000000004,-3.67749375,-0.5171046545,8.839420110499999,-0.05640397996962595,0.06385356881591334,-0.011706446891901567,9.587841539935171,0.08599841920509618
0.17000000000000015,-3.67749375,-0.5171046545,8.839420110499999,-0.05640397996962595,0.06385356881591334,-0.011706446891901567,9.587841539935171,0.08599841920509618
0.17500000000000004,-3.6871042669999996,-0.4931764285,8.896887079499999,-0.06491769606085429,0.060660838015240116,-0.01809190849324802,9.643265036839527,0.09067172482912585
0.18000000000000016,-3.6391497484999995,-0.46924820249999993,8.8872765625,-0.07236728490714169,0.05640397996962595,-0.01809190849324802,9.614951350158716,0.09351871488730713
0.18500000000000005,-3.6583707824999996,-0.4931764285,8.8872765625,-0.07662414295275587,0.054275550946818865,-0.020220337516055103,9.623439326469487,0.09605184414204801
0.19000000000000017,-3.701421976,-0.5602539145,8.896887079499999,-0.07981687375342908,0.050018518368279495,-0.023412893783803134,9.652409481497475,0.09706054353268581
0.19500000000000006,-3.7205449434999998,-0.5793768819999999,8.882471304,-0.08407373179904325,0.04150480227705115,-0.024477195561669274,9.647612591433328,0.09690291065411177
0.20000000000000018,-3.7205449434999998,-0.588987399,8.9208153055,-0.08620216082185034,0.03937637325424407,-0.0276699263623425,9.683506934351174,0.09872657254210314
0.20500000000000007,-3.7349607189999996,-0.5698644315,8.954354048499999,-0.08833076437758261,0.032990911652897616,-0.028734053607283445,9.718803088274303,0.09857164918942744
0.2100000000000002,-3.7301554605,-0.541130947,8.916010046999999,-0.08620216082185034,0.029798355385149588,-0.029798355385149588,9.67998541421959,0.0959515320235977
0.21500000000000008,-3.7062272344999996,-0.5698644315,8.916010046999999,-0.08620216082185034,0.02554132280661022,-0.03086248263009053,9.672440278556557,0.09505611256074097
0.2200000000000002,-3.701421976,-0.5698644315,8.9686717575,-0.08194530277623617,0.028734053607283445,-0.03086248263009053,9.719173998261512,0.0921584034035307
0.2250000000000001,-3.663176041,-0.5841821405,8.987794724999999,-0.08088117553129522,0.028734053607283445,-0.03192678440795667,9.72319811067189,0.09157909125265751
0.2300000000000002,-3.7158377515,-0.6081103664999999,8.973477015999999,-0.0830096045541023,0.02234876653886219,-0.029798355385149588,9.731420151755733,0.09098353586059778
0.2350000000000001,-3.6871042669999996,-0.6033051079999999,8.9351330145,-0.08194530277623617,0.02554132280661022,-0.028734053607283445,9.684798238263735,0.09051540009582196
0.2400000000000002,-3.7062272344999996,-0.612915625,8.973477015999999,-0.07875274650848814,0.0276699263623425,-0.026605624584476358,9.728056107660919,0.08760981204783937
0.24400000000000022,-3.7158377515,-0.636843851,8.983087532999999,-0.07981687375342908,0.024477195561669274,-0.02234876653886219,9.742118964145792,0.08642530766010384
0.25,-3.7540836864999996,-0.6177208835,8.963866499,-0.07556001570781491,0.026605624584476358,-0.019156035738188967,9.73784504020535,0.08236582385005387
0.2550000000000001,-3.7876224295,-0.670382594,8.930327755999999,-0.07023885588433461,0.029798355385149588,-0.01809190849324802,9.723489616406942,0.07841400393123704
0.26,-3.768499462,-0.7087265955,8.939938273,-0.06811042686152752,0.024477195561669274,-0.013834875914708653,9.727609053992328,0.0736855965667584
0.2650000000000001,-3.7876224295,-0.6320385924999999,8.9686717575,-0.06172513979310626,0.02234876653886219,-0.009578017869094483,9.756158544459955,0.0663415305414924
0.27,-3.782817171,-0.6895055615,8.930327755999999,-0.05853240899243303,0.02234876653886219,-0.007449588846287397,9.722956211879998,0.06309521885408395
0.27500000000000013,-3.7636942035,-0.69431082,8.954354048499999,-0.05640397996962595,0.01809190849324802,-0.0031927308006732273,9.737962723183783,0.05932048246017215
0.28,-3.7349607189999996,-0.627233334,8.973477015999999,-0.054275550946818865,0.015963304937515736,-0.0031927308006732273,9.739950871766961,0.05666441621577348
0.28400000000000003,-3.7540836864999996,-0.6177208835,8.954354048499999,-0.046825962100531464,0.012770748669767708,-0.0031927308006732273,9.729089363401169,0.04864109659734606
0.29000000000000004,-3.7158377515,-0.6081103664999999,8.9351330145,-0.0425689295219921,0.011706446891901567,-0.0031927308006732273,9.696073968371177,0.04426452518040615
0.29500000000000015,-3.7205449434999998,-0.6225261419999999,8.939938273,-0.04044050049918502,0.011706446891901567,-0.0031927308006732273,9.703220589017185,0.042221659245262534
0.30000000000000004,-3.663176041,-0.612915625,8.94954879,-0.03937637325424407,0.013834875914708653,-0.0053211598234803115,9.689630943194691,0.04207395042184599
0.30500000000000016,-3.6726884914999998,-0.6225261419999999,8.8729588535,-0.03937637325424407,0.013834875914708653,-0.009578017869094483,9.623179223571283,0.042821034416903415
0.31000000000000005,-3.6871042669999996,-0.6033051079999999,8.858543078,-0.04044050049918502,0.013834875914708653,-0.012770748669767708,9.614182252997402,0.044608630261266075
0.31500000000000017,-3.6966167175,-0.6225261419999999,8.8729588535,-0.0425689295219921,0.011706446891901567,-0.015963304937515736,9.632336828074376,0.046946584156990136
0.32000000000000006,-3.67749375,-0.5745716235,8.8776660455,-0.04363323129985824,0.010642319646960623,-0.023412893783803134,9.626372486416889,0.050648607448444814
0.3250000000000002,-3.667883233,-0.646454368,8.9112047885,-0.04363323129985824,0.011706446891901567,-0.0276699263623425,9.658200735303348,0.05297664199812307
0.33000000000000007,-3.7301554605,-0.636843851,8.9208153055,-0.03937637325424407,0.015963304937515736,-0.03086248263009053,9.69023093454937,0.05251493796319578
0.3350000000000002,-3.653565524,-0.5937926575,8.939938273,-0.037247944231436986,0.01702760671538188,-0.032990911652897616,9.675930295496785,0.052590388776004054
0.3400000000000001,-3.6822990085,-0.6512596264999999,8.954354048499999,-0.03405521343076376,0.020220337516055103,-0.0351195152086299,9.703809639260104,0.05293392068954693
0.3450000000000002,-3.6918114589999997,-0.6081103664999999,8.944743531499999,-0.03086248263009053,0.02234876653886219,-0.03618364245357084,9.695757160271679,0.05254727567732755
0.3500000000000001,-3.67749375,-0.6416491095,8.896887079499999,-0.028734053607283445,0.029798355385149588,-0.037247944231436986,9.648330092113621,0.05568659775775633
0.3550000000000002,-3.7349607189999996,-0.6559668185,8.94954879,-0.026605624584476358,0.0351195152086299,-0.03618364245357084,9.719806972570828,0.05701311769432658
0.3600000000000001,-3.7110324929999994,-0.636843851,8.9351330145,-0.024477195561669274,0.037247944231436986,-0.03937637325424407,9.696078291838724,0.05947302937206066
0.3650000000000002,-3.6918114589999997,-0.5841821405,8.9112047885,-0.02128446476099605,0.04150480227705115,-0.03937637325424407,9.663348871104064,0.06104241003496455
0.3690000000000002,-3.7110324929999994,-0.6559668185,8.916010046999999,-0.02128446476099605,0.0425689295219921,-0.03618364245357084,9.679736039235767,0.059786270848901986
0.375,-3.7110324929999994,-0.6751878524999999,8.954354048499999,-0.02234876653886219,0.046825962100531464,-0.037247944231436986,9.71638292916421,0.06387133505663722
0.3800000000000001,-3.6966167175,-0.6895055615,8.9351330145,-0.020220337516055103,0.05214694739108658,-0.03405521343076376,9.694173253158196,0.06548223983101685
0.385,-3.7540836864999996,-0.646454368,8.8872765625,-0.02554132280661022,0.054275550946818865,-0.032990911652897616,9.669267411418176,0.06845870910980935
0.3900000000000001,-3.7588889449999994,-0.6416491095,8.882471304,-0.023412893783803134,0.05853240899243303,-0.03192678440795667,9.666398302726243,0.07066488562519045
0.395,-3.7636942035,-0.612915625,8.90639953,-0.020220337516055103,0.06172513979310626,-0.03192678440795667,9.688395750010052,0.07237523398493327
0.40000000000000013,-3.7062272344999996,-0.636843851,8.90639953,-0.02234876653886219,0.05959653623737397,-0.03086248263009053,9.66776308110052,0.07073688805279629
0.405,-3.7349607189999996,-0.6416491095,8.925620563999999,-0.02128446476099605,0.06491769606085429,-0.03405521343076376,9.696821520719807,0.07633539980786379
0.40900000000000003,-3.6871042669999996,-0.6081103664999999,8.9208153055,-0.020220337516055103,0.06811042686152752,-0.037247944231436986,9.671891325300209,0.08022033187410106
0.41500000000000004,-3.6822990085,-0.612915625,8.90639953,-0.02234876653886219,0.07023885588433461,-0.0425689295219921,9.657067056790765,0.08511802395731015
0.42000000000000015,-3.6918114589999997,-0.612915625,8.882471304,-0.023412893783803134,0.07343158668500784,-0.04895439112333855,9.638642740477328,0.09130659301861106
0.42500000000000004,-3.7301554605,-0.612915625,8.8776660455,-0.0276699263623425,0.07662414295275587,-0.053211249168952715,9.648972988784386,0.09730529865460665
0.43000000000000016,-3.7253502019999996,-0.5745716235,8.892081821,-0.03086248263009053,0.077688444730622,-0.0627892670380472,9.658027013289596,0.10454893272497215
0.43500000000000005,-3.67749375,-0.555448656,8.9112047885,-0.029798355385149588,0.077688444730622,-0.06704612508366137,9.656192535017443,0.10685793988776196
0.44000000000000017,-3.6822990085,-0.5985979159999999,8.8729588535,-0.03086248263009053,0.08407373179904325,-0.07023885588433461,9.625333462740066,0.11381731893104151
0.44500000000000006,-3.667883233,-0.6033051079999999,8.9112047885,-0.023412893783803134,0.08939489162252356,-0.07662414295275587,9.65540860071943,0.12004528115165022
0.4500000000000002,-3.6822990085,-0.627233334,8.916010046999999,-0.02554132280661022,0.09897290949161804,-0.07449571392994878,9.666849683401814,0.12648164838378825
0.45500000000000007,-3.6966167175,-0.588987399,8.896887079499999,-0.0276699263623425,0.11493638896205899,-0.07449571392994878,9.652278540202582,0.13973406788062795
0.4600000000000002,-3.701421976,-0.6320385924999999,8.9112047885,-0.01809190849324802,0.1255785340760944,-0.07236728490714169,9.670034550579974,0.14606268961805502
0.4650000000000001,-3.6391497484999995,-0.646454368,8.94954879,-0.02128446476099605,0.14047771176866922,-0.07449571392994878,9.68275465384228,0.1604263922733917
0.4700000000000002,-3.620026781,-0.6320385924999999,8.90639953,-0.023412893783803134,0.16069804928472428,-0.07449571392994878,9.634729849121397,0.17866627558993914
0.4750000000000001,-3.6726884914999998,-0.6416491095,8.896887079499999,-0.023412893783803134,0.17985408502291328,-0.07343158668500784,9.646499574492951,0.19567282237919192
0.4800000000000002,-3.6104162639999995,-0.6416491095,8.9015942715,-0.023412893783803134,0.19794581898323607,-0.07343158668500784,9.627315293137515,0.2124215355639666
0.4850000000000001,-3.643955007,-0.6655773355,8.959061240499999,-0.023412893783803134,0.2181661564992912,-0.07236728490714169,9.69464695559364,0.23104471290604398
0.4900000000000002,-3.6822990085,-0.636843851,9.0261387265,-0.020220337516055103,0.2362580649925392,-0.07236728490714169,9.769138978875242,0.24791885617700296
0.4940000000000002,-3.6726884914999998,-0.6847003029999998,8.959061240499999,-0.023412893783803134,0.2564782279756691,-0.07662414295275587,9.70681377031383,0.2687015152620381
0.5,-3.5912932964999995,-0.7134337874999999,8.944743531499999,-0.01702760671538188,0.2841481543380116,-0.077688444730622,9.665133840508547,0.2950688181574174
0.5050000000000001,-3.4859698755,-0.660772077,8.963866499,-0.011706446891901567,0.313946335190236,-0.08088117553129522,9.640513903445754,0.3244088575139975
0.51,-3.4715540999999996,-0.6847003029999998,8.987794724999999,-0.012770748669767708,0.3533227084444801,-0.07875274650848814,9.659242019583777,0.36221819861343196
0.5150000000000001,-3.596098555,-0.9384964049999999,9.045261693999999,-0.0031927308006732273,0.3969559397443383,-0.07556001570781491,9.779031620381168,0.4040959386111688
0.52,-3.505092843,-0.8475887595,9.007015759,0.01702760671538188,0.43313958219790916,-0.07875274650848814,9.702083045725537,0.4405698947268903
0.5250000000000001,-3.3710359375,-0.6991160785,8.925620563999999,0.026605624584476358,0.48528670412192093,-0.07981687375342908,9.56657457168622,0.4925259158590721
0.53,-3.6009038135,-0.73746008,8.94954879,0.03405521343076376,0.5480759711599681,-0.07556001570781491,9.674956288700374,0.554307084294006
0.534,-3.605709072,-0.7134337874999999,8.954354048499999,0.050018518368279495,0.5874523444142122,-0.07662414295275587,9.679389552391102,0.5945362633353466
0.54,-3.643955007,-0.73746008,8.983087532999999,0.06385356881591334,0.6236359868677831,-0.07449571392994878,9.722042845419576,0.6313071627670758
0.5450000000000002,-3.6009038135,-0.7996342409999999,9.021333468,0.07449571392994878,0.6736545052360625,-0.06598199783872043,9.74630087439924,0.6809652178030577
0.55,-3.6871042669999996,-1.0007686325,9.064482728,0.10110133851442513,0.7300584852056885,-0.05640397996962595,9.836723176837694,0.7391808178156728
0.5550000000000002,-3.67749375,-0.6991160785,8.8729588535,0.12451440683115346,0.7811413053518342,-0.0553396781917598,9.630271148228918,0.7929363507985046
0.56,-3.7588889449999994,-0.761388306,8.9015942715,0.1426061407914763,0.8354168562986529,-0.04895439112333855,9.692643541767044,0.8489136396534216
0.5650000000000002,-3.8020382049999997,-0.785316532,8.944743531499999,0.15644119123911013,0.8854353746669325,-0.04363323129985824,9.750930899766606,0.9002074804741126
0.5700000000000001,-3.7972329465,-0.751777789,8.925620563999999,0.16389060555247234,0.9333254640124049,-0.04150480227705115,9.728866858299504,0.9485142070493114
0.5750000000000002,-3.806745397,-0.7996342409999999,8.959061240499999,0.1734686234215668,0.9886651422041647,-0.032990911652897616,9.767062186143267,1.0043099755419358
0.5800000000000001,-3.9025563675,-0.8619064684999999,8.916010046999999,0.17666135422224005,1.0514544092422118,-0.02128446476099605,9.770776024459973,1.0664045373265656
0.5850000000000002,-3.9696338534999995,-0.7805112734999999,8.882471304,0.1809182122678542,1.1078583892118379,-0.012770748669767708,9.760404051334007,1.122606209718631
0.5900000000000001,-3.9935620794999998,-0.69431082,8.8872765625,0.19475326271548807,1.1600055111358496,-0.011706446891901567,9.768023868518712,1.1762987121061999
0.5950000000000002,-4.0174903055,-0.6512596264999999,8.939938273,0.21284499667581086,1.2164093165725505,-0.00851371609122834,9.822772713493151,1.2349198765167348
0.6000000000000001,-4.0318080145,-0.6559668185,8.9015942715,0.22135888729996445,1.2823913144112709,-0.00851371609122834,9.794087446370952,1.301383772615068
0.6050000000000002,-4.0318080145,-0.6320385924999999,8.9112047885,0.23200103241399986,1.3579513301190858,-0.010642319646960623,9.801250911530687,1.377668157787217
0.6100000000000001,-4.084469725,-0.6655773355,9.040554501999999,0.23732219223748016,1.4345754730718416,-0.010642319646960623,9.942711492726986,1.4541120554603657
0.6150000000000002,-4.0557362405,-0.6559668185,8.954354048499999,0.23945062126028724,1.5101354887796563,-0.011706446891901567,9.851890445258027,1.5290463810468737
0.6190000000000002,-4.084469725,-0.636843851,9.0357492435,0.2532856717079211,1.6016589839579123,-0.013834875914708653,9.936459501070233,1.6216215761321133
0.625,-4.141936694,-0.5985979159999999,9.0596774695,0.2649921185998227,1.692118177358302,-0.01809190849324802,9.979564864938206,1.712837431345816
0.6300000000000001,-4.16586492,-0.5123974625,8.9112047885,0.2681846748675707,1.7761919091573453,-0.02554132280661022,9.850205707184413,1.7965057965841777
0.635,-4.185085954,-0.5315204299999999,8.8729588535,0.28095542353733843,1.8698436588254832,-0.03405521343076376,9.824808253893789,1.8911401365384666
0.6400000000000001,-4.228137147499999,-0.5267151715,8.8776660455,0.29266187042923997,1.968816568317101,-0.04895439112333855,9.847209098286749,1.991051526830314
0.645,-4.3669993115,-0.5698644315,8.8298095935,0.3022398882983345,2.0763033684328724,-0.0627892670380472,9.867166052843892,2.0991253225806834
0.6500000000000001,-4.4628102819999995,-0.7039213369999999,8.954354048499999,0.3064969208768738,2.1954966154405455,-0.07449571392994878,10.02958809162655,2.2180386295806094
0.655,-4.3526816025,-0.7996342409999999,9.050066952499998,0.3064969208768738,2.3232035785394474,-0.08088117553129522,10.074173112313199,2.3447296207453907
0.659,-4.477127991,-0.660772077,9.1650008905,0.28946931416149196,2.4700667519094632,-0.08620216082185034,10.221474262962479,2.488463995170524
0.665,-4.290409374999999,-0.555448656,9.011821017499999,0.24902863912938172,2.6265077686156477,-0.09471605144600387,9.996452063907215,2.6399866386227226
0.6700000000000002,-4.2520653735,-0.36392478149999996,8.8776660455,0.21923045827715734,2.7978481375473327,-0.10855092736071252,9.850150029442755,2.8085226540735544
0.675,-4.300019892,-0.277724328,8.8298095935,0.192624833692681,2.980894778837994,-0.1479273006149566,9.825112687975816,2.990772558274195
0.6800000000000002,-4.4723227324999995,-0.08620045349999998,8.781953141499999,0.1660192091082046,3.169262579952136,-0.2181661564992912,9.855546769272701,3.1810979473005
0.685,-4.453199765,0.0383440015,8.8298095935,0.12877126487676763,3.3597588100890845,-0.29479029945204704,9.889286924086676,3.3751240897602877
0.6900000000000002,-4.8075140295,0.009610516999999999,8.5616957825,0.05959653623737397,3.56196166165086,-0.3724787441826691,9.819109846516364,3.581879819462114
0.6950000000000001,-5.066115389999999,-0.19152387449999997,8.499423555,-0.002128429022807085,3.7843846761957654,-0.4427176000670036,9.896585638824492,3.8101930109962305
0.7000000000000002,-5.22890578,-0.06707748599999999,8.3892948755,-0.09258762242319679,4.023835297456053,-0.5172134885298776,9.885657466923282,4.057996151008089
0.7050000000000001,-4.975109678,0.1436674225,8.307899680499998,-0.22455144356771245,4.280313699964647,-0.5917092024598264,9.68470720970278,4.3268497201993315
0.7100000000000002,-5.2001722955,0.22025735899999999,8.3461456155,-0.3192674950137163,4.527214084604147,-0.6693976471904484,9.836079088854932,4.5875584259249065
0.7150000000000001,-5.9950993445,0.6655773355,8.2743609375,-0.35970817004582656,4.7379303031913,-0.7428292338754562,10.239592680569938,4.809279446673495
0.7200000000000002,-6.880934038999999,0.809244758,8.317412131,-0.33523097448415723,4.917784737280064,-0.7949761812665428,10.825039255555856,4.992892313805644
0.7250000000000001,-7.484239146999999,0.5745716235,8.2839714545,-0.30543261909900765,5.079546739276804,-0.8481874304354955,11.17891547597483,5.158924895601414
0.7300000000000002,-8.307899680499998,0.2393803265,8.236016936,-0.2681846748675707,5.2487586791856815,-0.8843710728890664,11.70087496779818,5.329493680146718
0.7350000000000001,-9.346914248,0.0048052584999999995,8.260043228499999,-0.20539540782952348,5.389236216421425,-0.9035272831601806,12.473698055775735,5.4683101431210535
0.7400000000000002,-9.346914248,0.0048052584999999995,8.260043228499999,-0.20539540782952348,5.389236216421425,-0.9035272831601806,12.473698055775735,5.4683101431210535
0.7440000000000002,-11.137804671,0.07178467799999999,9.188929116499999,-0.09152332064533064,5.492466158491583,-0.8652150371508773,14.439261208157653,5.560949386652357
0.75,-15.591004435999999,0.07178467799999999,12.387564146999999,0.3565154392451533,5.305162310089457,-0.6842968248830232,19.913219675868767,5.360980557636714
0.7550000000000001,-16.017201444999998,-0.42619700899999996,12.387564146999999,0.5725531667216374,5.0635832598063635,-0.5874523444142122,20.253003024643785,5.1295996739192
0.76,-14.235921538999998,-0.6177208835,11.2718615765,0.6662049163897751,4.854995470242017,-0.6108652381980153,18.168596658912683,4.938417392842683
0.7650000000000001,-13.0052850305,0.10532342099999999,10.783490406499999,0.7162236092909798,4.729416761632996,-0.6523700404750665,16.894738740052656,4.8276232074831995
0.77,-13.0052850305,0.10532342099999999,10.783490406499999,0.7162236092909798,4.729416761632996,-0.6523700404750665,16.894738740052656,4.8276232074831995
0.7750000000000001,-11.942244170499999,0.5027869455,10.534499562999999,0.7853981633974483,4.6495997133466425,-0.6534343422529327,15.93253500178969,4.760525623190866
0.78,-10.783490406499999,0.9336911465,10.002979132999998,0.934389765790271,4.600645322223304,-0.6193789542892437,14.73821685413006,4.735256265961242
0.784,-11.080337702,0.46444294399999997,11.037286508500001,1.073803175781074,4.57616830119456,-0.6066083801524013,15.646446379587609,4.739445464191623
0.79,-11.817797781999998,2.4947136935,12.416297631499999,1.1557484785573102,4.366516035319422,-0.6374708627824917,17.321904852029785,4.561642898483597
0.7950000000000002,-12.9478180615,0.612915625,13.350086844499998,1.210024029504129,4.189854332031332,-0.683232523105157,18.607699397635557,4.414277308489779
0.8,-13.0723625165,-0.2250626175,12.478569858999998,1.1759688160733655,3.952532314326777,-0.8449946996348223,18.07351710848039,4.209445378501226
0.8050000000000002,-13.0723625165,-0.2250626175,12.478569858999998,1.1759688160733655,3.952532314326777,-0.8449946996348223,18.07351710848039,4.209445378501226
0.81,-12.794638188499999,0.5027869455,9.7108390295,1.0567755690656921,3.79396269406486,-1.011013908743027,16.070343983376592,4.066088618193393
0.8150000000000002,-11.851336524999999,1.120507829,8.456274294999998,0.9822798551357435,3.7513937645428674,-1.1536200495345033,14.601996102448702,4.045821067366251
0.8200000000000001,-10.740341146499999,1.5801455144999998,8.7627321075,0.9226833188983694,3.727980696226139,-1.2728132965421763,13.951245886228469,4.045891529225988
0.8250000000000002,-9.830578226,1.9392650375,9.9885633575,0.8620223063502042,3.6683843345216904,-1.3781716676351408,14.148230104503067,4.012416133439015
0.8300000000000001,-7.1970023685,1.618489516,11.3389390625,0.7438933611203971,3.4001994851211945,-1.5548330218573807,13.527301669907597,3.8121174689659805
0.8350000000000002,-7.1970023685,1.618489516,11.3389390625,0.7438933611203971,3.4001994851211945,-1.5548330218573807,13.527301669907597,3.8121174689659805
0.8400000000000001,-6.833077586999999,1.6807617434999997,11.2671543845,0.642792022605972,3.265042933176006,-1.6420994844570973,13.284000800682469,3.710819000795204
0.8450000000000002,-5.770036727,2.1308869785,10.419565624999999,0.4969931510138225,3.09263843699938,-1.715531071142105,12.099642596364214,3.5713389016186343
0.8500000000000001,-4.319142859499999,2.6383811159999997,9.677398353,0.30968947714462186,2.9085274939308525,-1.7591643024419632,10.920993033450864,3.4132241060604143
0.8550000000000002,-0.06227222749999999,1.144436055,11.836920749499999,0.273505834691051,2.6978109262778487,-1.7421366957265816,11.892279198885527,3.22304661805431
0.8600000000000001,-3.7253502019999996,-0.138862164,10.5775507565,0.24264335206096047,2.3285247383629275,-1.7410723939487154,11.215261781807232,2.9175737067703755
0.8650000000000002,-14.202382795999998,3.3231794855,14.470594673499999,0.08726646259971647,1.921990780749495,-1.7655495895103848,20.54627239140208,2.611288829256735
0.8690000000000002,-13.32135336,3.4236976479999996,20.240533334,0.2628636895770156,1.1046656584111645,-1.5782459156411839,24.471602942424287,1.9442848830377435
0.875,-9.102728663,1.838746875,19.0626566025,0.4224974370838737,0.15644119123911013,-1.3845569547035619,21.20437539583189,1.4560136989316943
0.8800000000000001,-6.6080149695,1.7142024200000001,16.1369406415,0.5108280269285311,-0.5204060447976256,-1.2217304763960306,17.521564001000723,1.4228116816755747
0.885,-4.3669993115,2.542668212,13.7092063675,0.5438191131143539,-1.0003715890960663,-1.0652894596898457,14.610892643834575,1.5592703989319345
0.8900000000000001,-1.848357392,3.3471077114999996,10.625505274999998,0.4746443844749603,-1.345180581449318,-0.9407750528586922,11.292515992018634,1.7087585518449395
0.895,0.12454445499999998,3.366230679,7.819430443999999,0.3586438682679604,-1.5154566486031367,-0.8343525545207868,8.514136055646873,1.766742330753701
0.9000000000000001,1.1970977655,3.1268503525,6.038150538,0.20007442253896837,-1.5473834330110936,-0.7534713789894916,6.904310110839761,1.7326697268284643
0.905,1.709495228,2.9448389285,5.0134536794999995,0.006385287068421255,-1.5069429325119084,-0.6928105409742515,6.060459392311435,1.658585005184712
0.909,1.7956956814999998,2.868248992,4.5154719925,-0.20752383685233058,-1.4249976297356723,-0.6374708627824917,5.64277082431306,1.5748185573299711
0.915,1.4317708999999998,2.4852012429999997,4.3909275375,-0.3948275107215312,-1.3292172765118022,-0.5682963086760232,5.244658022013577,1.4985553129113411
0.9200000000000002,1.0439178924999999,1.9345578454999999,4.453199765,-0.5257272046211059,-1.2557856898267945,-0.48315827509911385,4.966212517690247,1.4445859999492003
0.925,0.718239046,1.4556991259999998,4.673457124,-0.5927735042376925,-1.2196020473732236,-0.3788642057840155,4.947335521520903,1.4079586882105402
0.9300000000000002,0.3303860385,1.1396307964999999,5.090043615999999,-0.6044799511295941,-1.2142808875497433,-0.25222136993005495,5.226514832998113,1.3796701434167598
0.935,-0.129251647,0.9768404065,5.631174562999999,-0.5693604359209642,-1.2387580831114127,-0.10642249833790543,5.716734218677788,1.36748624951714
0.9400000000000002,-0.6751878524999999,0.8906399529999999,6.1914284775,-0.5033784380822438,-1.2983546193487867,0.04469753307772438,6.291494635938377,1.393238112805448
0.9450000000000001,-1.0246968585,0.8763222439999999,6.622332678499999,-0.4235615643288147,-1.3962634015954636,0.2032669788067164,6.758197572716999,1.473184764408327
0.9500000000000002,-1.1970977655,0.9384964049999999,6.809149360999999,-0.351194279421673,-1.5090713615347155,0.35970817004582656,6.976985995597936,1.590604842096385
0.9550000000000001,-1.3503757049999998,1.1157025704999999,6.962329234,-0.30011145927552735,-1.6303928630322706,0.5076354706607832,7.1792990697620045,1.7337651360227677
0.9600000000000002,-1.5131660949999999,1.2881034774999998,7.091580881,-0.2756342637138581,-1.7517145390627507,0.6395992918052988,7.364740429341001,1.8850902704578223
0.9650000000000001,-1.7621569384999998,1.3838163815,7.2304430449999995,-0.2798911217594723,-1.8783575494496365,0.759856840590838,7.569640115659417,2.0454702495531216
0.9700000000000002,-2.0541989755,1.4317708999999998,7.398038693499999,-0.31288220794529503,-1.9996790509471916,0.8705361969743577,7.810293070785195,2.2032804753567716
0.9750000000000001,-2.370267305,1.38862164,7.6375170865,-0.3660934571142478,-2.124193457778345,0.9631238193975544,8.11653278209407,2.360895964861882
0.9800000000000002,-2.7868537969999996,1.2784929605000002,7.88650793,-0.4256899933516217,-2.260414136968475,1.0461334239516569,8.461566383705458,2.5268714216903594
0.9850000000000001,-3.1459733199999995,1.1587537639999999,8.097154772,-0.49167199119034216,-2.4030206268258016,1.1227575669044125,8.763776230453306,2.697560756296781
0.9900000000000002,-3.5721703289999995,0.9097629205,8.322217389499999,-0.5544612582283894,-2.5477551966400847,1.1876752629652667,9.10205315898566,2.865145085181967
0.9940000000000002,-3.9887568209999995,0.612915625,8.437151327499999,-0.6002229185510547,-2.6999393553006557,1.2408865121342196,9.352612953799497,3.0314582976270503
1.0,-4.3669993115,0.3207755215,8.513741264,-0.6342781319818185,-2.8585088010296476,1.283455616189137,9.57378557479597,3.196973511463887
1.005,-4.654334156499999,-0.028733484499999996,8.394100134,-0.6491773096743934,-3.0106929596902186,1.30686850997294,9.59815446391195,3.3456850687539648
1.0100000000000002,-4.7214116425,-0.5267151715,8.1833552255,-0.6364067355375508,-3.1543632277266354,1.3175108296199007,9.462370713332943,3.4771907758472613
1.0150000000000001,-4.7453398684999994,-1.0486250844999998,7.8817026715,-0.5959660605054405,-3.2799419363356552,1.30686850997294,9.259541135355922,3.580656357899562
1.02,-4.673457124,-1.5610225469999999,7.6518347955,-0.5204060447976256,-3.3778507185823323,1.2791987581435227,9.101020196644617,3.6492529908633378
1.025,-4.673457124,-2.092542977,7.445993211999999,-0.4139835464597202,-3.4491538762445333,1.2366296540886055,9.036744574989848,3.6874513881708815
1.0300000000000002,-4.7261188345,-2.4707854675,7.3741104674999995,-0.2884050123836258,-3.4991723946128124,1.1812899758968456,9.100466210646458,3.7044339521096514
1.0340000000000003,-4.798001578999999,-2.6719198589999995,7.307131048,-0.14686299883709047,-3.5332276080435765,1.114243676280259,9.140795317566772,3.7076684103084654
1.04,-4.9224479675,-2.7916590555,7.3549875,-0.010642319646960623,-3.5566405018273795,1.0365552315496371,9.28006979499919,3.7046257120334443
1.045,-5.1762440695,-2.7868537969999996,7.517777889999999,0.10855092736071252,-3.5726039812978208,0.951417372505653,9.543429213666336,3.6987129555727183
1.0500000000000003,-5.4396506884999996,-2.7197763109999995,7.747645765999999,0.21071656765300378,-3.5917600170360093,0.85776544830459,9.84951763845281,3.6987704789790823
1.0550000000000002,-5.7652314685,-2.604842373,8.001441867999999,0.2862765833608187,-3.6130446563299308,0.760920967835779,10.200302428876423,3.7033831411436693
1.06,-6.129156249999999,-2.3893902725,8.21208871,0.3331025454613502,-3.641778535404289,0.661948058344161,10.522078843657328,3.7164073294876925
1.065,-6.430808804,-2.150009946,8.3748791,0.3554511374672871,-3.6715768907894386,0.5640392760974839,10.775734062286412,3.731616631044299
1.0700000000000003,-6.627137937,-1.905824361,8.4850077795,0.3660934571142478,-3.7035036751973953,0.4746443844749603,10.933731327830458,3.751699772537255
1.0750000000000002,-6.761194842499999,-1.7429359045,8.5760134915,0.36290072631357456,-3.731173427026812,0.3948275107215312,11.058914443643818,3.7695146694146833
1.08,-6.880934038999999,-1.618489516,8.6574086865,0.3607722972907675,-3.7513937645428674,0.32565295661506277,11.17664917260788,3.782745256463313
1.085,-6.938401008,-1.422160383,8.743609139999998,0.3660934571142478,-3.76416433867971,0.27031327842330294,11.252317516666583,3.791573137422233
1.0900000000000003,-6.991062718499999,-1.2545647344999997,8.834614852,0.3777999040061493,-3.7748066583266704,0.23732219223748016,11.335753622509207,3.8010814116699505
1.0950000000000002,-7.02940672,-1.0821638275,8.939938273,0.3948275107215312,-3.776935261882403,0.21923045827715734,11.4239281208252,3.803838946315902
1.1,-7.110801915,-0.842783501,9.045261693999999,0.42462586610668085,-3.7748066583266704,0.2181661564992912,11.536487637789467,3.8048743613627884
1.105,-7.182586592999999,-0.6033051079999999,9.188929116499999,0.45548834873677135,-3.76416433867971,0.23519376321467306,11.67861059918275,3.7989102267200376
1.1100000000000003,-7.297520531,-0.3543142645,9.423602251,0.487415133144728,-3.7471369064972535,0.2681846748675707,11.924077485635816,3.7882095411798598
1.1150000000000002,-7.484239146999999,-0.153179873,9.686910803499998,0.5214703465754918,-3.722659710935584,0.3182033677687754,12.242284941870311,3.7724501360574614
1.1190000000000002,-7.838651478,0.009610516999999999,10.036517875999998,0.5533971309834484,-3.693925657328301,0.3820567620517635,12.734843557376593,3.754637467969246
1.125,-8.293483905,0.1436674225,10.405247915999999,0.5800027555679248,-3.6726410180343794,0.4459103308676769,13.306829066468246,3.7448005643811673
1.13,-8.743609139999998,0.3782424905,10.778685148000001,0.605544078374535,-3.6651914291880923,0.5108280269285311,13.884301267778186,3.749834278544055
1.1350000000000002,-9.2128573425,0.6416491095,11.089948218999998,0.6172506997993618,-3.6651914291880923,0.5725531667216374,14.431749910980287,3.7606440628859876
1.1400000000000001,-9.734865322,0.9145681789999999,11.406016548499998,0.6098011109530744,-3.6726410180343794,0.6353424337596846,15.023356858444565,3.7767458810997443
1.145,-10.405247915999999,1.192292507,11.7219868115,0.5863880426363461,-3.685411766704147,0.6981317007977318,15.719278622909215,3.7965113852544947
1.15,-11.003747765499998,1.4412833504999998,12.004516398,0.5565898617841217,-3.706696231465143,0.759856840590838,16.34833864749032,3.82449626026637
1.1550000000000002,-11.52085242,1.618489516,12.162501529499998,0.524663077376165,-3.743944350229506,0.8300956964751727,16.830804860490527,3.8705877470590777
1.1590000000000003,-11.990198689,1.8435521334999998,12.196040272499998,0.4938004202131493,-3.785448803440706,0.9109766974735427,17.201946035233092,3.9247089117300353
1.165,-12.3541234705,2.0063425235,12.0667886255,0.4586810795374446,-3.8184398896265286,1.0003715890960663,17.385544707556893,3.9738664848843723
1.17,-12.751488928499999,2.241015658,11.8129925235,0.428882724152295,-3.847173943233812,1.1014731021434165,17.526249268834622,4.024665294818805
1.1750000000000003,-13.187296454499998,2.4564677584999997,11.669325101,0.40121297232287767,-3.8610088191485215,1.2185379201282827,17.77954358076289,4.06856186059563
1.1800000000000002,-13.661349915499999,2.6671146004999997,11.420334257499999,0.36715775889211394,-3.867394280749868,1.3483733122499912,18.004722057253762,4.112134960319211
1.185,-14.202382795999998,2.7054586019999998,11.161732896999998,0.33523097448415723,-3.865265851727061,1.4877867222407941,18.26503393359083,4.155258023475429
1.19,-14.700364483,2.5762069549999995,10.86969086,0.30330419007620063,-3.8461098159888714,1.6282646085423886,18.46314538750117,4.187576839151185
1.1950000000000003,-15.294157140499998,2.2601386254999998,10.477032593999999,0.2788269945145313,-3.8120546025581077,1.7698064475559987,18.675858245888524,4.2120920749154145
1.2000000000000002,-15.739477117,1.9010191024999998,10.0221021005,0.27031327842330294,-3.7652288149905013,1.9102843338575932,18.756000214797478,4.230745032959145
1.205,-16.122524866,1.331154671,9.495386929,0.2766985654917242,-3.704567802442336,2.04331228224705,18.7582023057738,4.23975350484191
1.21,-16.4721319385,0.8763222439999999,9.073995178499999,0.29053344140643284,-3.623686801443966,2.1667625618332624,18.82648293691953,4.232065183205111
1.2150000000000003,-16.941380141,0.4310022675,8.844225369,0.2958546012299132,-3.5321633062657103,2.273185060171168,19.11586896832374,4.210828645882449
1.2200000000000002,-17.640496219499997,0.153179873,8.623869943499999,0.2788269945145313,-3.4523466070452065,2.3487450758789827,19.636234459439738,4.184859020267269
1.225,-18.248606586,0.05746696899999999,8.3318279065,0.23519376321467306,-3.393814023519848,2.3945067362016483,20.060765215879997,4.160162525936953
1.23,-18.6603878195,-0.1340569055,7.7715739919999995,0.155376889461244,-3.3533736975535886,2.417919629985451,20.214485082266798,4.13709952385628
1.2350000000000003,-18.794444724999998,-0.43570945949999995,6.98625746,0.04150480227705115,-3.3214469131456315,2.4104700411391637,20.05564231211715,4.104156193992395
1.2400000000000002,-18.799249983499998,-0.9384964049999999,6.0908122485,-0.08620216082185034,-3.2863273979370016,2.373222271440652,19.783593437260084,4.054573039004683
1.2440000000000002,-18.669998336499997,-1.5562172884999999,5.075725907,-0.21178086943086993,-3.238437134058604,2.3104328298696797,19.410142802589835,3.9837703333960173
1.25,-18.1815291,-2.1260817199999997,3.9648285949999997,-0.3086253498996809,-3.170326881730002,2.2199736364692897,18.729871587440062,3.882589997699894
1.255,-17.506439314,-2.6096476315,2.715069119,-0.37035031515986194,-3.0692255432155764,2.102908993017349,17.90690588952502,3.7389211042731563
1.2600000000000002,-16.606188844,-3.0693833834999995,1.5131660949999999,-0.40227709956781865,-2.9319403877146555,1.9677522665392349,16.95512588890314,3.5538922724837
1.2650000000000001,-15.571881468499999,-3.7301554605,0.41178123349999995,-0.39908436876714537,-2.7499576991360097,1.809182820810243,16.0177125711749,3.315822395657915
1.27,-15.212761945499999,-4.7214116425,-0.6177208835,-0.33948783252977144,-2.5200850957448173,1.6399710554342903,15.940559369052878,3.0258198791225475
1.275,-15.519219757999998,-5.521045883499999,-1.192292507,-0.21923045827715734,-2.273185060171168,1.45798854138857,16.515135208863963,2.709458045152606
1.2800000000000002,-16.165674126,-6.0286380875,-1.5179713535000001,-0.05853240899243303,-2.0390554242014356,1.245143544712759,17.319865304560775,2.389886087830884
1.2840000000000003,-17.065826529499997,-6.3638293845,-1.8770908764999998,0.12132167603048023,-1.8411096052181994,1.013142337765834,18.310222001075005,2.104961026735454
1.29,-17.764942608,-6.531425032999999,-2.1835486889999998,0.30968947714462186,-1.6846684139790893,0.7683705566820663,19.053099057750853,1.8773408187350633
1.295,-18.1624061325,-6.588892002,-2.7102638605,0.48528670412192093,-1.5548330218573807,0.5235987755982988,19.509793041686155,1.7108958439553557
1.3000000000000003,-18.124062131,-6.478665255999999,-3.4045746804999997,0.6417278953610311,-1.426061756980613,0.28308385256014545,19.545993461135495,1.589214678382825
1.3050000000000002,-17.702768447,-6.196233735999999,-4.228137147499999,0.7545356807673578,-1.2728132965421763,0.0627892670380472,19.226504282820443,1.4809862502605478
1.31,-15.265423656,-4.280798858,-6.818661811499999,0.7864624651753145,-1.0535830127979442,-0.14686299883709047,17.25840511633178,1.3229244552934416
1.315,-20.0250812335,-1.4844326104999999,-13.632616430999999,0.20965244040806286,-0.11600051620699993,-0.487415133144728,24.270468667460065,0.5431240903769964
1.3200000000000003,-18.215067843,-1.4077446075,-10.726023437499999,-0.6693976471904484,0.8652150371508773,-0.7619852696136452,21.185325586047465,1.3331585883473434
1.3250000000000002,-8.2504327115,-3.1747068045,-13.9055355005,-1.3568870283412195,1.0599682998663655,-1.0567755690656921,16.477630921257873,2.0202598366983335
1.33,-13.7427451105,-5.793964953,-15.404285819999998,-1.6314571648101368,1.772999178356672,-1.3462448832271843,21.441200868258683,2.7599916399654436
1.335,-20.6379968585,-9.524120413499999,-10.314242204,-1.5665394687492824,2.5498834511299666,-1.4398966328953218,24.960356091712274,3.321032043645324
1.3400000000000003,-7.422064985999999,-9.1553903735,-0.842783501,-1.344116454204377,2.8968210470389506,-1.344116454204377,11.816027487152416,3.4648045058117978
1.3450000000000002,4.730924093,-3.5434368444999995,4.4723227324999995,-0.8524442884811096,3.0564546200128837,-1.092959211519263,7.4121021355836865,3.35605958636121
1.35,-3.629637298,0.6177208835,14.1975775375,-0.3586438682679604,3.50130082363562,-0.7779485745511608,14.667210162067951,3.6045716619986705
1.355,-5.559291818499999,1.6232947745,22.764078578499998,-0.2564782279756691,3.3597588100890845,-0.5906449006819602,23.48923338417588,3.4209094904861725
1.3600000000000003,-4.381415087,2.255333367,23.8414371475,-0.4459103308676769,2.803169122837888,-0.5672320068981571,24.34537845298544,2.8945371485016334
1.3650000000000002,-3.342302453,4.4340767974999995,17.4010178265,-0.7864624651753145,2.245515133808825,-0.6736545052360625,18.265471363521623,2.47278624586092
1.3690000000000002,-2.437344791,4.673457124,6.430808804,-0.9333254640124049,2.1305787448467663,-0.9056555376500623,8.31487540457974,2.49613183999624
1.375,-2.140399429,1.316836962,2.011147782,-0.9727018372666489,2.570103788646022,-0.9929220002497788,3.218708545549975,2.921896036346018
1.38,-3.6104162639999995,-2.0781272014999996,5.4635789145,-1.0163350685665071,3.190547219246057,-0.8588297500824562,6.870546762808542,3.4568941362823837
1.3850000000000002,-14.226311021999999,-4.5394002185,15.318085366499998,-0.7247373253822081,3.5342917352885173,-0.5193419175526847,21.392471080587626,3.6450210271352588
1.3900000000000001,-21.9309055945,1.4269656414999998,29.659330326499997,-1.0014358908739325,3.0117570869351593,-0.3160749387459683,36.91445145946687,3.1895858604429965
1.395,-25.689794539499996,9.7635988065,34.2131463205,-2.1848542957935853,1.9964863201465184,-0.5321126662224523,43.884311391247266,3.0071065511441786
1.4,-31.301748068499997,-7.216125336,19.881413811,-1.285584045211944,0.7162236092909798,-0.6257644158905901,37.77753978401619,1.599150930964365
1.4050000000000002,-12.655776024499998,-7.900825639,13.6660571075,-0.053211249168952715,-0.03086248263009053,-0.23412946143680693,20.232469681816898,0.24207547291062403
1.4090000000000003,-12.655776024499998,-7.900825639,13.6660571075,-0.053211249168952715,-0.03086248263009053,-0.23412946143680693,20.232469681816898,0.24207547291062403
1.415,1.608878999,-3.5098981014999997,7.4747266965,-0.04789008934547241,0.17134019439875972,-0.0276699263623425,8.413050309115377,0.18004595996305933
1.42,-2.4707854675,-0.17240090699999996,11.2718615765,-0.1383492827458621,0.3565154392451533,-0.04044050049918502,11.540769744645315,0.38455066836124946
1.4250000000000003,-4.855468548,1.929752587,11.042091766999999,-0.1660192091082046,0.31713906599090924,-0.032990911652897616,12.21586306645992,0.35948291367210955
1.4300000000000002,-4.357486861,0.9529121805,9.2224678595,-0.11600051620699993,0.21071656765300378,-0.015963304937515736,10.244493486114548,0.24106517531215801
1.435,-4.697385349999999,-0.6416491095,9.0357492435,-0.08088117553129522,0.13196399567744085,-0.013834875914708653,10.204014263882993,0.15539518815605327
1.44,-4.697385349999999,-0.6416491095,9.0357492435,-0.08088117553129522,0.13196399567744085,-0.013834875914708653,10.204014263882993,0.15539518815605327
1.4450000000000003,-4.3766098285,-1.4412833504999998,9.260811860999999,-0.08620216082185034,0.07023885588433461,-0.013834875914708653,10.343821712123114,0.11205227886068118
1.4500000000000002,-3.701421976,-0.69431082,9.351719506499999,-0.11174365816138576,0.026605624584476358,-0.019156035738188967,10.081530136216298,0.11645367363901193
1.455,-3.744571236,0.09100571199999999,8.954354048499999,-0.10855092736071252,0.001064301777866142,-0.010642319646960623,9.706212042139999,0.1090765581443288
1.46,-3.7349607189999996,-0.2393803265,8.8872765625,-0.11174365816138576,-0.013834875914708653,-0.023412893783803134,9.64317993255078,0.1150052717321935
1.4650000000000003,-3.596098555,-0.2346731345,8.983087532999999,-0.12877126487676763,-0.029798355385149588,-0.03831207147637793,9.678990542555,0.13761466296304842
1.4700000000000002,-3.596098555,-0.2346731345,8.983087532999999,-0.12877126487676763,-0.029798355385149588,-0.03831207147637793,9.678990542555,0.13761466296304842
1.475,-3.5864880379999997,-0.0048052584999999995,9.169806149,-0.1383492827458621,-0.028734053607283445,-0.04895439112333855,9.846230971669543,0.14954164063316125
1.48,-3.5912932964999995,-0.0765899365,9.174611407499999,-0.1308996938995747,-0.024477195561669274,-0.05108282014614563,9.85275332272599,0.14263000203200593
1.4850000000000003,-3.6871042669999996,-0.6559668185,9.2560066025,-0.11600051620699993,-0.02128446476099605,-0.04895439112333855,9.984923062709408,0.12769369839858716
1.4900000000000002,-3.8259664309999994,-1.005573891,9.342207056,-0.10429406931509835,-0.02128446476099605,-0.04363323129985824,10.145246702696586,0.11503973317133326
1.4940000000000002,-3.864212366,-0.8619064684999999,9.227273118,-0.10216564029229126,-0.02554132280661022,-0.04044050049918502,10.04079624154155,0.11280785126785235
1.5,-3.806745397,-0.842783501,9.2224678595,-0.08088117553129522,-0.03937637325424407,-0.02554132280661022,10.012767248201119,0.09351268628744018
1.505,-3.806745397,-0.842783501,9.2224678595,-0.08088117553129522,-0.03937637325424407,-0.02554132280661022,10.012767248201119,0.09351268628744018
1.5100000000000002,-3.7253502019999996,-0.9336911465,9.265519053,-0.07449571392994878,-0.0425689295219921,-0.014899177692574794,10.029947986211091,0.08708450292960289
1.5150000000000001,-3.6966167175,-0.90025047,9.2703243115,-0.06385356881591334,-0.046825962100531464,-0.002128429022807085,10.020695530013056,0.07921161017978436
1.52,-3.67749375,-0.8475887595,9.246396085499999,-0.05214694739108658,-0.05108282014614563,0.012770748669767708,9.986901799680895,0.07410702165030374
1.525,-3.6391497484999995,-0.7805112734999999,9.160195631999999,-0.0425689295219921,-0.053211249168952715,0.024477195561669274,9.887456333991066,0.072406380252937
1.5300000000000002,-3.6248320394999998,-0.7901217905,9.0932162125,-0.0351195152086299,-0.0553396781917598,0.03192678440795667,9.820910387824618,0.07290528028537348
1.5340000000000003,-3.5769755874999998,-0.7901217905,9.136267406,-0.026605624584476358,-0.060660838015240116,0.04044050049918502,9.843293600788908,0.07760818648097555
1.54,-3.5243138769999995,-0.6895055615,9.169806149,-0.024477195561669274,-0.0627892670380472,0.04469753307772438,9.847921152872438,0.08086714178808145
1.545,-3.4859698755,-0.6512596264999999,9.088410954,-0.019156035738188967,-0.0627892670380472,0.046825962100531464,9.755784886045285,0.08063570230994695
1.5500000000000003,-3.4715540999999996,-0.6751878524999999,9.045261693999999,-0.012770748669767708,-0.0553396781917598,0.04789008934547241,9.712071129184244,0.07429019222933293
1.5550000000000002,-3.433308165,-0.7039213369999999,9.021333468,-0.009578017869094483,-0.050018518368279495,0.04895439112333855,9.678200646060013,0.07064080277230302
1.56,-3.4236976479999996,-0.6847003029999998,9.007015759,-0.011706446891901567,-0.03831207147637793,0.04363323129985824,9.660064853442929,0.05923440379805415
1.565,-3.4428206154999996,-0.565059173,8.997405242,-0.023412893783803134,-0.0276699263623425,0.03618364245357084,9.650160970070514,0.051215665586194996
1.5700000000000003,-3.4045746804999997,-0.4310022675,8.954354048499999,-0.028734053607283445,-0.014899177692574794,0.02128446476099605,9.589439406742196,0.038738350155669246
1.5750000000000002,-3.35191297,-0.46444294399999997,9.011821017499999,-0.028734053607283445,-0.00425685804561417,0.011706446891901567,9.62621139691729,0.03131784756268637
1.58,-3.4236976479999996,-0.5745716235,9.054872211,-0.028734053607283445,0.00851371609122834,0.0053211598234803115,9.69755375819037,0.03043754162634197
1.585,-3.399769422,-0.6847003029999998,9.050066952499998,-0.026605624584476358,0.015963304937515736,-0.0031927308006732273,9.691798515880688,0.03119102265113753
1.5900000000000003,-3.3949641634999996,-0.6033051079999999,9.021333468,-0.02128446476099605,0.02128446476099605,-0.00425685804561417,9.657857747225574,0.0304002914582192
1.5950000000000002,-3.3806464544999995,-0.5363256885,9.050066952499998,-0.019156035738188967,0.0276699263623425,-0.006385287068421255,9.675749456202398,0.034254202969071945
1.6,-3.433308165,-0.6512596264999999,9.064482728,-0.014899177692574794,0.037247944231436986,-0.009578017869094483,9.714761509330783,0.0412447969043836
1.605,-3.4763593585,-0.7278495629999999,9.064482728,-0.00851371609122834,0.046825962100531464,-0.009578017869094483,9.735485940722228,0.04854783738358633
1.6100000000000003,-3.505092843,-0.6416491095,9.064482728,-0.006385287068421255,0.05214694739108658,-0.011706446891901567,9.739724664690593,0.05382487261469191
1.6150000000000002,-3.457236391,-0.6320385924999999,9.064482728,-0.002128429022807085,0.05853240899243303,-0.01702760671538188,9.721975281385692,0.060996003992198546
1.6190000000000002,-3.4524311324999997,-0.7039213369999999,9.11233918,0.006385287068421255,0.06491769606085429,-0.014899177692574794,9.769826574955268,0.06691087093074281
1.625,-3.4285029064999994,-0.6799931109999999,9.078800437,0.0053211598234803115,0.07343158668500784,-0.015963304937515736,9.728393504878275,0.07533485096204118
1.63,-3.4620416494999997,-0.627233334,9.064482728,0.00851371609122834,0.08194530277623617,-0.020220337516055103,9.723373959915547,0.08483146855992914
1.6350000000000002,-3.5098981014999997,-0.6799931109999999,9.078800437,0.014899177692574794,0.0904591934003897,-0.019156035738188967,9.75737632198288,0.09365791409041095
1.6400000000000001,-3.5002875845,-0.7278495629999999,9.078800437,0.020220337516055103,0.0979087822466771,-0.02128446476099605,9.75737646785423,0.10221555718408279
1.645,-3.529021069,-0.6895055615,9.0357492435,0.02234876653886219,0.09897290949161804,-0.020220337516055103,9.724925296175604,0.10345997403975978
1.65,-3.466846908,-0.6655773355,9.0932162125,0.0276699263623425,0.10322976753723222,-0.02128446476099605,9.754414475524058,0.1089726487282499
1.6550000000000002,-3.481164617,-0.660772077,9.0836056955,0.029798355385149588,0.10855092736071252,-0.02128446476099605,9.750231754154138,0.1145612249179121
1.6590000000000003,-3.51470336,-0.6320385924999999,9.045261693999999,0.03192678440795667,0.11280778540632669,-0.020220337516055103,9.724678483330356,0.11896965184522977
1.665,-3.5769755874999998,-0.670382594,9.0357492435,0.037247944231436986,0.11706481798486607,-0.019156035738188967,9.741094988106827,0.12433235566215592
1.67,-3.5912932964999995,-0.6847003029999998,8.997405242,0.03618364245357084,0.11812894522980702,-0.02234876653886219,9.711822853367085,0.1255514677258819
1.6750000000000003,-3.5816827795,-0.7134337874999999,8.9686717575,0.03618364245357084,0.11812894522980702,-0.020220337516055103,9.683724097468472,0.12519011834636865
1.6800000000000002,-3.5577545534999997,-0.670382594,9.016528209499999,0.032990911652897616,0.11812894522980702,-0.020220337516055103,9.716213832455388,0.1243049073933094
1.685,-3.6009038135,-0.6655773355,9.007015759,0.028734053607283445,0.12132167603048023,-0.01809190849324802,9.72295399281949,0.12598377698925803
1.69,-3.653565524,-0.6655773355,8.959061240499999,0.02554132280661022,0.12238597780834638,-0.02128446476099605,9.698263377467228,0.1268215879689992
1.6950000000000003,-3.653565524,-0.7134337874999999,8.959061240499999,0.020220337516055103,0.11919324700767316,-0.02234876653886219,9.701665172450417,0.12294453850132561
1.7000000000000002,-3.667883233,-0.6895055615,8.997405242,0.019156035738188967,0.11493638896205899,-0.02128446476099605,9.740743627620585,0.11844980224974025
1.705,-3.6726884914999998,-0.7087265955,8.9686717575,0.015963304937515736,0.10855092736071252,-0.01702760671538188,9.717407433906622,0.1110318437469743
1.71,-3.6966167175,-0.73746008,8.954354048499999,0.009578017869094483,0.10642249833790543,-0.015963304937515736,9.715414502304181,0.10803848241858219
1.7150000000000003,-3.6918114589999997,-0.7278495629999999,8.9015942715,0.006385287068421255,0.09578017869094482,-0.01702760671538188,9.664244275139398,0.09749130172209819
1.7200000000000002,-3.643955007,-0.6177208835,8.882471304,0.0053211598234803115,0.08833076437758261,-0.012770748669767708,9.620721576333858,0.08940766577302761
1.725,-3.605709072,-0.6320385924999999,8.8729588535,0.006385287068421255,0.08726646259971647,-0.009578017869094483,9.598437868227126,0.08802241653075968
1.73,-3.5769755874999998,-0.6033051079999999,8.930327755999999,0.00425685804561417,0.0830096045541023,-0.0053211598234803115,9.638956646675709,0.083288834969136
1.7350000000000003,-3.5864880379999997,-0.565059173,8.973477015999999,0.0053211598234803115,0.0830096045541023,-0.0053211598234803115,9.680158990036722,0.08335000859005645
1.7400000000000002,-3.5864880379999997,-0.6081103664999999,8.973477015999999,0.007449588846287397,0.08407373179904325,-0.0053211598234803115,9.682767394771089,0.08457070115863534
1.7440000000000002,-3.5912932964999995,-0.7087265955,9.0357492435,0.007449588846287397,0.08620216082185034,-0.0053211598234803115,9.749074075011723,0.08668692892358051
1.75,-3.6104162639999995,-0.809244758,9.0836056955,0.002128429022807085,0.08726646259971647,-0.007449588846287397,9.808255456962069,0.08760971452271472
1.755,-3.6152215224999997,-0.7996342409999999,9.073995178499999,-0.00425685804561417,0.09152332064533064,-0.012770748669767708,9.800338263323777,0.09250800551279273
1.7600000000000002,-3.5816827795,-0.7134337874999999,8.997405242,-0.007449588846287397,0.09365174966813773,-0.014899177692574794,9.710341929658425,0.09512166990647916
1.7650000000000001,-3.5338263275,-0.5985979159999999,8.954354048499999,-0.011706446891901567,0.09897290949161804,-0.019156035738188967,9.645035220457208,0.10148709975790864
1.77,-3.5625598119999995,-0.627233334,8.939938273,-0.012770748669767708,0.10642249833790543,-0.024477195561669274,9.64405259185206,0.10994531948487875
1.775,-3.6344425565,-0.7087265955,8.930327755999999,-0.013834875914708653,0.10961522913857867,-0.03192678440795667,9.667586043746972,0.11500531210909623
1.7800000000000002,-3.596098555,-0.6655773355,8.9925999835,-0.014899177692574794,0.11493638896205899,-0.03937637325424407,9.707820170875054,0.1224044842896296
1.7840000000000003,-3.6104162639999995,-0.6895055615,8.973477015999999,-0.00851371609122834,0.12451440683115346,-0.0425689295219921,9.697103344575398,0.13186521387706604
1.79,-3.6248320394999998,-0.718239046,8.997405242,-0.0031927308006732273,0.12983539212170858,-0.04469753307772438,9.72669397742901,0.1373509812145427
1.795,-3.667883233,-0.670382594,8.9686717575,0.0,0.1383492827458621,-0.046825962100531464,9.71287049882983,0.14605887430394263
1.8000000000000003,-3.6344425565,-0.636843851,8.9686717575,0.006385287068421255,0.14473456981428337,-0.04576166032266532,9.698031546702294,0.15193089595522966
1.8050000000000002,-3.605709072,-0.636843851,9.011821017499999,0.015963304937515736,0.1479273006149566,-0.05214694739108658,9.727262001915767,0.1576598157234893
1.81,-3.5912932964999995,-0.6177208835,9.002210500499999,0.01702760671538188,0.15112003141562982,-0.053211249168952715,9.711784621103904,0.16111685300934547
1.815,-3.529021069,-0.6320385924999999,8.94954879,0.013834875914708653,0.16176217652966526,-0.05108282014614563,9.640948399013748,0.1701994713895241
1.8200000000000003,-3.6583707824999996,-0.660772077,8.963866499,0.01809190849324802,0.1734686234215668,-0.054275550946818865,9.704184619631217,0.18265956283557164
1.8250000000000002,-3.6583707824999996,-0.6751878524999999,9.030943985,0.01702760671538188,0.18411094306852746,-0.053211249168952715,9.767164618179676,0.1924011844718131
1.83,-3.620026781,-0.6559668185,9.002210500499999,0.02128446476099605,0.192624833692681,-0.05108282014614563,9.724951426996572,0.20041658990557282
1.835,-3.6009038135,-0.6033051079999999,8.954354048499999,0.023412893783803134,0.20433128058458253,-0.053211249168952715,9.67010557094937,0.21244028068797927
1.8400000000000003,-3.6726884914999998,-0.6177208835,8.963866499,0.024477195561669274,0.21923045827715734,-0.054275550946818865,9.706756536423642,0.22717165837656192
1.8450000000000002,-3.744571236,-0.612915625,8.9208153055,0.023412893783803134,0.22774417436838568,-0.05640397996962595,9.694247006327554,0.23579012174067698
1.85,-3.6152215224999997,-0.6177208835,8.944743531499999,0.02234876653886219,0.23200103241399986,-0.05746810721456689,9.667463089713365,0.24005526395768817
1.855,-3.5769755874999998,-0.6081103664999999,8.973477015999999,0.020220337516055103,0.24902863912938172,-0.05853240899243303,9.679248024929208,0.2566128758623629
1.8600000000000003,-3.6871042669999996,-0.670382594,8.9686717575,0.02128446476099605,0.2660562458447636,-0.05853240899243303,9.720145255696846,0.27324896577229496
1.8650000000000002,-3.667883233,-0.5793768819999999,8.973477015999999,0.019156035738188967,0.2756342637138581,-0.06172513979310626,9.71145379121987,0.28310986192777166
1.8690000000000002,-3.653565524,-0.660772077,8.9015942715,0.013834875914708653,0.29053344140643284,-0.06491769606085429,9.64487124591645,0.2980191128583702
1.875,-3.643955007,-0.7565830474999999,8.9686717575,0.01809190849324802,0.3064969208768738,-0.06598199783872043,9.710195625968762,0.31404028992904975
1.88,-3.481164617,-0.7805112734999999,8.983087532999999,0.026605624584476358,0.32884551288281083,-0.06704612508366137,9.66558671598643,0.33666365038629126
1.8850000000000002,-3.5673650704999997,-0.5123974625,8.954354048499999,0.029798355385149588,0.369286187914921,-0.06917455410646846,9.652414264404955,0.37688904136923745
1.8900000000000001,-3.643955007,-0.69431082,8.983087532999999,0.03086248263009053,0.39908436876714537,-0.06704612508366137,9.718865017755387,0.4058522010745999
1.895,-3.7205449434999998,-0.670382594,8.983087532999999,0.03086248263009053,0.42143313530600757,-0.06917455410646846,9.746164841848387,0.42818629042015466
1.9,-3.744571236,-0.670382594,8.9112047885,0.032990911652897616,0.44058917104419654,-0.07023885588433461,9.689210357217044,0.447370891731952
1.9050000000000002,-3.744571236,-0.6655773355,8.925620563999999,0.032990911652897616,0.4618738103381178,-0.07130315766220074,9.70213942300921,0.46850822534993086
1.9090000000000003,-3.629637298,-0.6559668185,8.939938273,0.029798355385149588,0.4906078639454013,-0.07343158668500784,9.670938719020814,0.496967017086453
1.915,-3.7205449434999998,-0.6559668185,8.8872765625,0.0276699263623425,0.5214703465754918,-0.07343158668500784,9.656936980323433,0.5273415829474657
1.92,-3.8498946569999997,-0.718239046,8.839420110499999,0.032990911652897616,0.5502044001827753,-0.07130315766220074,9.668138605083605,0.5557854105001115
1.9250000000000003,-3.864212366,-0.7278495629999999,8.868153594999999,0.04150480227705115,0.5714888649437712,-0.06704612508366137,9.700827303916817,0.5769032451421218
1.9300000000000002,-3.8690176244999996,-0.7469725305,8.9208153055,0.04576166032266532,0.5927735042376925,-0.06598199783872043,9.752343874928542,0.5981874128736826
1.935,-3.864212366,-0.7805112734999999,8.9015942715,0.05214694739108658,0.6161863980214956,-0.060660838015240116,9.735487436795836,0.6213571585631125
1.94,-3.830673623,-0.73746008,8.844225369,0.05853240899243303,0.642792022605972,-0.05853240899243303,9.666345232465305,0.6481000463900549
1.9450000000000003,-3.9168740764999996,-0.6751878524999999,8.8633483365,0.06704612508366137,0.6672692181676413,-0.05640397996962595,9.713738976391047,0.6729968806459679
1.9500000000000002,-3.9887568209999995,-0.7230443045,8.834614852,0.07556001570781491,0.6896179847065035,-0.05959653623737397,9.720256870398172,0.6963002426654159
1.955,-3.9552180779999997,-0.7134337874999999,8.7867584,0.07875274650848814,0.7140950057352476,-0.05746810721456689,9.662290670107952,0.7207192627129364
1.96,-4.0174903055,-0.6991160785,8.743609139999998,0.08407373179904325,0.7407008048526491,-0.05108282014614563,9.647781736704827,0.7472051453262772
1.9650000000000003,-4.060541498999999,-0.7326548214999999,8.801076109,0.08620216082185034,0.7673064294371255,-0.04576166032266532,9.720273711628646,0.7734882667121677
1.9700000000000002,-4.0510290485,-0.7278495629999999,8.7962708505,0.0904591934003897,0.796040483044409,-0.04469753307772438,9.711590097069896,0.8024096122177621
1.975,-4.141936694,-0.69431082,8.781953141499999,0.09897290949161804,0.8226461076288852,-0.04044050049918502,9.734495779000289,0.829564758949424
1.98,-4.1467419525,-0.7565830474999999,8.781953141499999,0.10429406931509835,0.8503158594583026,-0.03831207147637793,9.74117999566221,0.8575442429177782
1.9850000000000003,-4.199403663,-0.718239046,8.7484143985,0.10961522913857867,0.8758573567978379,-0.037247944231436986,9.73065326377931,0.8834755329184089
1.9900000000000002,-4.2616758905,-0.7134337874999999,8.686142170999998,0.1277069630989015,0.9045914104051215,-0.032990911652897616,9.701542917476587,0.9141570370862768
1.9940000000000002,-4.357486861,-0.7230443045,8.714875655499998,0.13515655194518889,0.9333254640124049,-0.0351195152086299,9.770339937836557,0.9437145202105204
2.0,-4.319142859499999,-0.73746008,8.6766297205,0.14686299883709047,0.9567383577962081,-0.03831207147637793,9.720223542544037,0.9687026584699865
2.005,-4.3478763439999994,-0.7134337874999999,8.6430909775,0.16069804928472428,0.9833439823806843,-0.03831207147637793,9.701342078145853,0.9971243982317504
2.0100000000000002,-4.3862203455,-0.6895055615,8.6334804605,0.16389060555247234,1.0152707667886411,-0.03618364245357084,9.708312505294257,1.0290501039624647
2.015,-4.496349025,-0.7230443045,8.628675202,0.17666135422224005,1.0450691221737907,-0.0351195152086299,9.756740406636741,1.0604772909144364
2.02,-4.553815994,-0.7469725305,8.604746976,0.18623937209133454,1.0748674775589402,-0.029798355385149588,9.764060558472224,1.0912896682432913
2.025,-4.5968671875,-0.73746008,8.614357493,0.19368896093762192,1.1025372293883575,-0.026605624584476358,9.791945175822473,1.1197372973318256
2.0300000000000002,-4.5872566704999995,-0.7565830474999999,8.532962298,0.19794581898323607,1.128078726727893,-0.019156035738188967,9.717344660343203,1.1454741876856813
2.0340000000000003,-4.6159901549999995,-0.73746008,8.5616957825,0.20113854978390933,1.1685192272270781,-0.014899177692574794,9.754683344564743,1.1857975738314095
2.04,-4.687872899499999,-0.7421672719999999,8.571208233,0.20220285156177545,1.2047028696806488,-0.012770748669767708,9.797580066268479,1.2216210907716394
2.045,-4.74053461,-0.7326548214999999,8.4803005875,0.2032669788067164,1.2419508139120858,-0.010642319646960623,9.742943576272415,1.258519983082339
2.0500000000000003,-4.8267350635,-0.6751878524999999,8.427638877,0.20539540782952348,1.2813270126334046,-0.007449588846287397,9.735417148253367,1.297706316250129
2.055,-4.788391062,-0.636843851,8.437151327499999,0.20965244040806286,1.3185749568648415,-0.006385287068421255,9.722128448870288,1.3351534872557242
2.06,-4.8315403219999995,-0.6799931109999999,8.451567103,0.2085881386301967,1.3590154573640265,-0.006385287068421255,9.758850291434497,1.374944652276051
2.065,-4.893714483,-0.660772077,8.432346069,0.21071656765300378,1.4026486886638847,-0.00425685804561417,9.771873996641924,1.4183944925634755
2.0700000000000003,-4.855468548,-0.588987399,8.3989053925,0.2085881386301967,1.4505389525422825,-0.001064301777866142,9.719264003460529,1.4654601315484317
2.075,-4.855468548,-0.588987399,8.3989053925,0.2085881386301967,1.4505389525422825,-0.001064301777866142,9.719264003460529,1.4654601315484317
2.08,-4.903325,-0.38304774899999994,8.394100134,0.19901012076110225,1.5644110397264754,-0.015963304937515736,9.728835423279488,1.5770991587366814
2.085,-4.8602738064999995,-0.359119523,8.3892948755,0.18943210289200774,1.6282646085423886,-0.03192678440795667,9.702138775241275,1.6395577076152028
2.0900000000000003,-4.893714483,-0.29214010349999997,8.437151327499999,0.17985408502291328,1.7048887514951445,-0.06172513979310626,9.758038214945254,1.715460037353415
2.095,-4.8075140295,-0.26340661899999995,8.451567103,0.16282647830753139,1.790026785072054,-0.09258762242319679,9.726796013450892,1.7998002170072673
2.1,-4.845858031,-0.31126307099999995,8.499423555,0.13728498096799596,1.8783575494496365,-0.12238597780834638,9.788739731102487,1.8873400798843678
2.105,-4.903325,-0.335191297,8.4228336185,0.10961522913857867,1.9805230152090028,-0.15112003141562982,9.751875482497883,1.9893024345550687
2.1100000000000003,-4.903325,-0.335191297,8.4228336185,0.10961522913857867,1.9805230152090028,-0.15112003141562982,9.751875482497883,1.9893024345550687
2.115,-4.893714483,-0.33999655549999996,8.537767556499999,0.08833076437758261,2.0933309751482545,-0.18198251404572036,9.846700663049516,2.103082150290157
2.119,-4.9272532259999995,-0.29684729549999994,8.489813038,0.054275550946818865,2.2114599203780614,-0.21603772747648411,9.820532984017103,2.2226500207100366
2.125,-4.9847201949999995,-0.1340569055,8.580818749999999,-0.03192678440795667,2.495608074716073,-0.3043683173211415,9.924507901992149,2.5143028963789544
2.13,-4.9559867104999995,-0.17240090699999996,8.523351781,-0.08194530277623617,2.645663804353837,-0.3522585811995391,9.860986356854111,2.670269294723628
2.1350000000000002,-5.171438811,-0.3064578125,8.441956586,-0.13196399567744085,2.825517714843825,-0.4086623866362399,9.90476283242906,2.8579660248684995
2.14,-5.171438811,-0.3064578125,8.441956586,-0.13196399567744085,2.825517714843825,-0.4086623866362399,9.90476283242906,2.8579660248684995
2.145,-5.190659845,-0.2154521005,8.427638877,-0.19475326271548807,3.024528010137852,-0.46293793758305873,9.900225566886196,3.065943582569715
2.15,-5.3343272675,-0.22025735899999999,8.394100134,-0.2532856717079211,3.234180450545915,-0.5118923287063973,9.948089151219268,3.2842214563537535
2.1550000000000002,-5.425234913,-0.17720616549999998,8.360561391,-0.28734088513868483,3.4491538762445333,-0.5480759711599681,9.968127339626294,3.504228091384451
2.1590000000000003,-5.444455947,-0.11012867949999999,8.3989053925,-0.30756104812181473,3.663063000165285,-0.5885164716591531,10.00978724434429,3.722764561305996
2.165,-6.071689281,0.16279038999999998,8.465884812,-0.3458731195981927,4.133450526594631,-0.6896179847065035,10.419362604600098,4.2048322719814495
2.17,-6.071689281,0.16279038999999998,8.465884812,-0.3458731195981927,4.133450526594631,-0.6896179847065035,10.419362604600098,4.2048322719814495
2.1750000000000003,-6.4499317715,0.25379610199999997,8.2265044855,-0.3714146169377281,4.3697085915871705,-0.7449576628982633,10.45664422118048,4.448287750649296
2.18,-7.263981788,0.148472681,8.0205648355,-0.3586438682679604,4.614480547203863,-0.800297341090023,10.82205783729962,4.697076961145605
2.185,-8.614357493,0.4213917505,8.5616957825,-0.310753778922488,4.841160245261457,-0.8354168562986529,12.15266887134974,4.922532047148348
2.19,-9.849701193499998,0.2393803265,8.959061240499999,-0.2383864940153463,5.008243756147528,-0.836480983543594,13.3168575442174,5.083211000671691
2.1950000000000003,-11.482606485,-0.0048052584999999995,9.816260517,-0.13196399567744085,5.105088062083414,-0.8024257701128302,15.106596086395056,5.169451202431735
2.2,-12.919084577,0.05266171049999999,11.003747765499998,0.06172513979310626,5.097638647770052,-0.7321869142284956,16.970208733253056,5.150323043605013
2.205,-13.996541212499999,-0.25379610199999997,12.109839819,0.32884551288281083,5.002922770856974,-0.6140579689986886,18.50988381423393,5.0511823182095865
2.21,-13.623005913999998,-1.1970977655,11.5591964215,0.6151220962436295,4.841160245261457,-0.5310483644445863,17.906265805685518,4.908891940037629
2.2150000000000003,-12.794638188499999,-1.0486250844999998,10.002979132999998,0.8428662706120151,4.728352459855131,-0.49805745279168867,16.274580562266376,4.8286438842634505
2.22,-11.899192976999998,-0.20593965,9.6965213205,1.031234246259082,4.682590799532465,-0.4459103308676769,15.35108238406137,4.815489247179164
2.225,-10.5775507565,0.3064578125,8.7484143985,1.2504645300033141,4.659177905748662,-0.369286187914921,13.730012778036958,4.838178643539078
2.23,-10.314242204,1.072651377,9.725254805,1.4824657369502392,4.685783530333138,-0.2777626927366652,14.216706870493264,4.922542439415736
2.2350000000000003,-10.941475538,0.3064578125,10.6924846945,1.6144295580947547,4.658113778503721,-0.2788269945145313,15.301602278245616,4.937828598119445
2.24,-10.443493851,-0.014317708999999998,9.816260517,1.6101727000491408,4.567654759636256,-0.3682218861370549,14.332680815195701,4.857130169620907
2.244,-10.548817271999999,0.277724328,10.443493851,1.5346126843413257,4.5165715904242605,-0.4820939733212477,14.8465901962802,4.794462391288672
2.25,-11.3293285455,0.9336911465,11.381990255999998,1.481401435172373,4.411213393864221,-0.545947542137161,16.086490190113334,4.685233455987383
2.255,-12.239189532500001,0.023928225999999997,11.4299447745,1.5143925213581957,4.230295007063442,-0.6193789542892437,16.746401718595457,4.535681960251177
2.2600000000000002,-12.919084577,-0.287334845,10.386026882,1.5271630954950384,4.0366060461258195,-0.739636503074783,16.578747299312365,4.378752978707774
2.265,-13.125024226999999,0.8715169855,8.3461456155,1.4728875445482197,3.9046420504483796,-0.8705361969743577,15.578316643671158,4.263034193066904
2.27,-12.550452603499998,1.5131660949999999,7.527388407,1.4281901860034203,3.855687833857966,-0.9897294439820309,14.712753257415672,4.229139422133278
2.275,-11.832115490999998,1.6376124834999999,8.063714095499998,1.3728505078116606,3.8109904753131665,-1.1238216941493537,14.411947011158572,4.203729548861003
2.2800000000000002,-11.0133582825,1.4844326104999999,9.303863054499999,1.3164465278420345,3.706696231465143,-1.2504645300033141,14.493428461572412,4.127504082835249
2.2840000000000003,-9.586392641,1.3743039309999998,10.453104368,1.2600425478724087,3.5513195165368243,-1.3696577770109872,14.249737755147695,4.009431375782707
2.29,-8.2265044855,1.1731695395,10.8313468585,1.2121524585269363,3.402327914144002,-1.479273006149566,13.651731669920123,3.9029985197024026
2.295,-7.5465113745,0.8906399529999999,10.740341146499999,1.1663907982042707,3.2799419363356552,-1.5835670754646645,13.156671364541207,3.8244177703755895
2.3000000000000003,-6.497886289999999,1.0343073754999998,10.208918783,1.1025372293883575,3.1384000973220454,-1.6793472541556091,12.145548184527277,3.7263052361687126
2.305,-4.979914936499999,1.4269656414999998,8.638285718999999,1.0088854797202198,2.9670597283903604,-1.7442651247493886,10.072525198770993,3.5866076128346096
2.31,-3.8929458505,1.8866033269999998,6.751682391999999,0.877985785820645,2.818068300530463,-1.7847056252485736,8.018697813910652,3.449281396950914
2.315,-2.140399429,0.8810294359999999,8.039687803,0.8652150371508773,2.6765264615168523,-1.810246948055184,8.366247818016687,3.345053807138986
2.3200000000000003,0.8283677254999999,-3.7253502019999996,9.346914248,1.0695463177354598,2.318946720493833,-1.8698436588254832,10.096000850616885,3.1650842842996227
2.325,-11.9039982355,-0.36392478149999996,10.50096082,0.9929220002497788,1.9358254821312784,-2.044376584024916,15.877902675748834,2.98542961952852
2.33,-14.9589658435,1.9776090389999998,19.4360938345,1.1195648361037394,1.3249602439332628,-1.9613669794708137,24.60575827243743,2.618378410085553
2.335,-11.3964060315,0.7230443045,19.8622908435,1.3654009189653733,0.351194279421673,-1.8027975337418216,22.910946315088413,2.2886100670659446
2.3400000000000003,-8.2504327115,0.9097629205,16.572650101,1.5122640923353887,-0.4363323129985824,-1.672961967087188,18.535102909578928,2.2969828723031225
2.345,-5.4778966235,2.4229290155,13.843263273,1.5165207758480779,-0.9844082841585505,-1.5399338441648063,15.083563056436471,2.3749297206239675
2.35,-3.040649899,3.816355914,11.0133582825,1.3909422417719834,-1.381364398435814,-1.403712990441751,12.045919845712193,2.4110781988037076
2.355,-1.398232157,4.242552923,8.312704939,1.1983175826122276,-1.6452922152577705,-1.2685564384965622,9.436915379094998,2.3983717268256224
2.3600000000000003,-0.3064578125,4.3287533765,6.6702871969999995,0.9471605144600388,-1.774063480134538,-1.146170460688216,7.957685183259296,2.3147615420715613
2.365,0.1579851315,4.218624697,5.602441078499999,0.642792022605972,-1.81131124983305,-1.0354911043046962,7.014919790986754,2.1831792998267003
2.369,0.49798168699999995,4.2856041165,5.008648420999999,0.29798303025272027,-1.7868340542713808,-0.9216190171205033,6.610669210385201,2.0324742154676048
2.375,0.6512596264999999,4.290409374999999,4.544205477,-0.053211249168952715,-1.7187236274098532,-0.7928477522437357,6.283434978050908,1.8935284266925987
2.38,0.5506433974999999,3.744571236,4.323948118,-0.3565154392451533,-1.6399710554342903,-0.6481131824294523,5.746437959279179,1.7990717101664564
2.3850000000000002,0.42619700899999996,2.9640599625,4.314337601,-0.5874523444142122,-1.5867596317324124,-0.48635083136686186,5.251742976115499,1.760523648527498
2.39,0.24418558499999998,2.2936773684999996,4.41495383,-0.7364437722741098,-1.5633467379486092,-0.30330419007620063,4.981204652664107,1.7545358031381573
2.395,-0.18191335749999998,1.6902741940000001,4.788391062,-0.7971046102893499,-1.5665394687492824,-0.10216564029229126,5.081221140944444,1.7606417821209839
2.4,-0.6895055615,1.1157025704999999,5.157121102,-0.7758201455283538,-1.6027231112028533,0.11600051620699993,5.321288209245336,1.7843974863106258
2.4050000000000002,-1.072651377,0.627233334,5.449163139,-0.6960032717749247,-1.6676408072637074,0.33523097448415723,5.589041201073498,1.8378863464932065
2.4090000000000003,-1.316836962,0.392658266,5.655102788999999,-0.5821311845907319,-1.7485219827950027,0.5480759711599681,5.819658723026899,1.9226526234744847
2.415,-1.4987503194999998,0.277724328,5.832308954499999,-0.45655265051463745,-1.8400453034403332,0.7524072517445507,6.028201312440161,2.03968716078779
2.42,-1.6902741940000001,0.22986787599999997,6.0525663135,-0.33735940350696436,-1.9315686240856642,0.934389765790271,6.2883563091346915,2.172061912354332
2.4250000000000003,-1.9728037804999998,0.11012867949999999,6.2967518985,-0.23945062126028724,-2.0305417081102073,1.1004088003655506,6.599482370130771,2.3219250109163743
2.43,-2.427734274,0.06707748599999999,6.588892002,-0.17985408502291328,-2.1337714756474395,1.2462076719577,7.0222425839828375,2.4775717474640992
2.435,-3.1843173215,0.028733484499999996,6.9575239755,-0.1457988715921495,-2.247643562831632,1.364336617187507,7.651656179337501,2.6333577997481976
2.44,-3.9264845935,-0.047856451999999994,7.287910014,-0.15112003141562982,-2.382800289309747,1.4547958105878969,8.27847835505731,2.795890794207415
2.4450000000000003,-4.5872566704999995,-0.11012867949999999,7.517777889999999,-0.19368896093762192,-2.536048749748183,1.5154566486031367,8.807498878255277,2.9606870027890264
2.45,-5.0948488745,-0.2250626175,7.694984055499999,-0.2628636895770156,-2.702067784323463,1.5516402910567075,9.231517635263938,3.1269562234235537
2.455,-5.396501428499999,-0.474053461,7.7141070229999995,-0.3437446905753856,-2.8670226916538013,1.560154007147936,9.426261269134573,3.2820816645501583
2.46,-5.59763582,-0.8522959514999999,7.565634342,-0.4256899933516217,-3.0181425485365057,1.5473834330110936,9.449802016928192,3.418302488441205
2.4650000000000003,-5.664713306,-1.3263494125,7.359792758499999,-0.487415133144728,-3.1511706714588876,1.5122640923353887,9.381616547870712,3.5290781795885633
2.47,-5.746108501,-1.9249473284999998,7.187391851499999,-0.5193419175526847,-3.263978805931065,1.4633097012120502,9.401158798242498,3.6144915208858603
2.475,-5.7796472439999995,-2.518739986,7.005478493999999,-0.5118923287063973,-3.35550195204347,1.398392005151196,9.424707014652952,3.671093475577376
2.48,-5.8178931789999995,-2.9017877349999996,6.86661633,-0.46719479562867294,-3.4299978405063443,1.3249602439332628,9.456144717836853,3.7065719756864826
2.4850000000000003,-5.9615606015,-3.18912258,6.756389584,-0.39269908169872414,-3.4874659477209113,1.2398223848892789,9.558216771260557,3.722068087952244
2.49,-6.167500251499999,-3.3231794855,6.6702871969999995,-0.2990473320305864,-3.5342917352885173,1.146170460688216,9.67338164943174,3.7275131256479255
2.494,-6.3638293845,-3.2800302254999996,6.617527419999999,-0.2032669788067164,-3.5694114250300726,1.050390281997271,9.749286736457753,3.7263031452530444
2.5,-6.593599193999999,-3.0981168679999995,6.617527419999999,-0.11600051620699993,-3.5949527478366825,0.9535458015284599,9.842029649079269,3.721073900710836
2.505,-6.8522005544999995,-2.8395155074999994,6.651066163,-0.04576166032266532,-3.6173013398426197,0.8556370192817828,9.962538926449755,3.71740202581697
2.5100000000000002,-7.125119623999999,-2.4947136935,6.7372666164999995,-0.001064301777866142,-3.633264644780135,0.7619852696136452,10.118383642195607,3.7123085355147647
2.515,-7.441187953499999,-2.059004234,6.789928326999999,0.020220337516055103,-3.644971091672037,0.6747188070139287,10.281726668256672,3.706948689921726
2.52,-7.738035248999999,-1.642417742,6.876128780499999,0.014899177692574794,-3.6524208550512496,0.5991587913061138,10.48121522343775,3.7012688831140896
2.525,-7.991831350999999,-1.2210259915,6.923985232499999,-0.009578017869094483,-3.658806316652596,0.5374336515130075,10.644333906573163,3.6980792759190333
2.5300000000000002,-8.1929657425,-0.8283677254999999,6.991062718499999,-0.04789008934547241,-3.656677887629789,0.4969931510138225,10.80212195267343,3.690608191977688
2.5340000000000003,-8.2839714545,-0.4549304935,6.9767450095,-0.09578017869094482,-3.6513565532733834,0.4746443844749603,10.84002378874097,3.683322659430771
2.54,-8.3892948755,-0.153179873,7.019796202999999,-0.15005572963776367,-3.6375216773586745,0.47251595545215325,10.939893569557066,3.671151318511435
2.545,-8.427638877,0.0765899365,7.005478493999999,-0.20220285156177545,-3.6141087835748715,0.487415133144728,10.959365492098135,3.6524295755991303
2.5500000000000003,-8.4467618445,0.2346731345,7.010185686,-0.2405149230381534,-3.583246300944781,0.5214703465754918,10.979324227381044,3.628971314821332
2.555,-8.5616957825,0.33999655549999996,7.091580881,-0.26392781682195654,-3.5438697531576118,0.5661678796532162,11.122443603884664,3.5985020199784263
2.56,-8.6191627515,0.5075922039999999,7.091580881,-0.2713774056682439,-3.5034290781255013,0.6225716850899169,11.173098754337193,3.5686491148385864
2.565,-8.671824461999998,0.627233334,7.110801915,-0.2649921185998227,-3.464053053937108,0.6906821119514444,11.231984020171591,3.5421640508565857
2.5700000000000003,-8.695752687999999,0.7948289824999999,7.19219711,-0.2458360828616337,-3.417227091836576,0.7683705566820663,11.312628659660563,3.5111635805234886
2.575,-8.729291431,0.9672298894999999,7.240053562,-0.21923045827715734,-3.3672083989353716,0.854572892036842,11.382198299410405,3.480869032799357
2.58,-8.848932561,1.1587537639999999,7.3501822415,-0.1904962301369487,-3.3182540078120333,0.9460962126821727,11.561639016072597,3.455748329625374
2.585,-8.983087532999999,1.4030374155,7.460310921,-0.16069804928472428,-3.266107234953872,1.0450691221737907,11.760978473444494,3.4329942911958127
2.5900000000000003,-9.11233918,1.5897560314999999,7.5465113745,-0.14047771176866922,-3.212895811251994,1.146170460688216,11.937834120832454,3.4141089915845697
2.595,-9.308668312999998,1.7812799059999997,7.733229990499999,-0.1255785340760944,-3.1586204348381,1.2504645300033141,12.232216068682657,3.399457980383629
2.6,-9.5001921875,1.9728037804999998,7.728522798499999,-0.11812894522980702,-3.1043448838912813,1.3568870283412195,12.404663276474915,3.3899932173271003
2.605,-9.576782124,2.0302707494999996,7.6614453125,-0.12451440683115346,-3.0426197440981753,1.4590526686335108,12.431190588325379,3.376666023540251
2.6100000000000003,-10.160964264499999,1.9584860714999999,7.536900857499999,-0.13409242470024793,-2.968123855635301,1.5676037705271486,12.801786477382356,3.359333502664523
2.615,-11.391600773,1.733423454,7.7715739919999995,-0.15005572963776367,-2.8712793751664902,1.662319647440227,13.898585804153685,3.3211547062007503
2.619,-11.147415187999998,1.6568335174999997,8.9015942715,-0.16921176537595264,-2.827646143866632,1.7485219827950027,14.36134893569424,3.3288953814715847
2.625,-11.7076691025,1.59456129,8.513741264,-0.19688169173829514,-2.82019672955327,1.8315315873491052,14.563513718589205,3.368498174169347
2.63,-11.865654233999999,1.4412833504999998,8.360561391,-0.23412946143680693,-2.784012912566774,1.9017704432334397,14.586638916143446,3.3796856837297065
2.6350000000000002,-12.0811063345,1.5993665485,8.810686625999999,-0.2862765833608187,-2.742508459355573,1.9815873169868687,15.037928795001394,3.3955846663955884
2.64,-12.219968498499998,1.8435521334999998,9.1171444385,-0.32565295661506277,-2.731866139708613,2.069917906831526,15.357364268836506,3.4429206488765285
2.645,-13.216029939,1.8291363579999997,8.930327755999999,-0.36290072631357456,-2.731866139708613,2.1571843694312425,16.054903954688914,3.4997476975010393
2.65,-13.934268985,1.5322890624999999,8.638285718999999,-0.4129194192147792,-2.7084532459248094,2.2274233998485027,16.466078527702624,3.5309540402443598
2.6550000000000002,-14.50403535,1.1635590225,9.160195631999999,-0.4618738103381178,-2.6818474468074074,2.292340921376432,17.193897029161324,3.558154022023303
2.6590000000000003,-14.920621842,0.8906399529999999,9.3709405405,-0.4938004202131493,-2.6978109262778487,2.349809377656849,17.641789089869363,3.6115961513257395
2.665,-15.1217562335,0.588987399,9.136267406,-0.5257272046211059,-2.722288121839518,2.393442608956707,17.67726788436253,3.6627597838729122
2.67,-15.255813138999999,0.359119523,8.925620563999999,-0.562975148852543,-2.741444157577707,2.418983757230392,17.678673700715912,3.6991809235406357
2.6750000000000003,-15.389968110999998,0.1436674225,8.6430909775,-0.6161863980214956,-2.7606000187829705,2.4221764880310652,17.65148096991373,3.723914214906373
2.68,-15.5814919855,-0.08139519499999999,8.269555679,-0.680039966837409,-2.7723064656748724,2.4051490558486086,17.640155010658237,3.732677253255146
2.685,-15.787333569,-0.287334845,7.738035248999999,-0.7566641097901649,-2.777627800031278,2.364708380816498,17.58407381828204,3.7255338539402545
2.69,-15.777821118499999,-0.5267151715,7.086873688999999,-0.8460590014126884,-2.774435069230605,2.300854812000585,17.304359184989003,3.702328814834565
2.6950000000000003,-15.61022547,-0.8906399529999999,6.3685365765,-0.9301327332117316,-2.7552790334924153,2.2103957931331206,16.88285037771569,3.652746776892072
2.7,-15.3276958835,-1.3455704465,5.588025302999999,-1.0003715890960663,-2.7159026602381715,2.097587833193869,16.369937315412216,3.57445734260773
2.705,-14.839226646999998,-1.766962197,4.8075140295,-1.0482618529744638,-2.6563061240007975,1.96243128124868,15.69831182103672,3.464960558278973
2.71,-14.269460281999999,-2.241015658,4.1945984045,-1.0599682998663655,-2.573296519446695,1.813439678855857,15.041087184575808,3.32173918942576
2.7150000000000003,-13.85287379,-2.6192581484999997,3.7780119125,-1.0429406931509837,-2.467938148353731,1.6474204697476524,14.59575278980651,3.145224665691383
2.72,-13.402748554999999,-2.925715961,3.4955803924999995,-0.996114731050452,-2.351937632146731,1.4665022574797981,14.1567144844217,2.9452477067501523
2.725,-12.9478180615,-3.1843173215,3.18912258,-0.9035272831601806,-2.2348728141618643,1.2760060273428495,13.709718165884242,2.7274914167985695
2.73,-12.416297631499999,-3.4763593585,2.9113982519999997,-0.7726275892606058,-2.108230152840829,1.0812527646273615,13.21838723313747,2.4921266641260904
2.7350000000000003,-12.105132627,-3.8020382049999997,2.6958480849999997,-0.605544078374535,-1.9730734263627152,0.8896922327125467,12.971404215694525,2.2474996430749896
2.74,-12.306168951999998,-4.1324242435,2.7341920865,-0.40121297232287767,-1.8389811761953925,0.7045171623990782,13.266293030432974,2.0097681576928212
2.744,-12.306168951999998,-4.1324242435,2.7341920865,-0.40121297232287767,-1.8389811761953925,0.7045171623990782,13.266293030432974,2.0097681576928212
2.75,-12.741976478,-4.4628102819999995,2.542668212,0.05959653623737397,-1.6272003067645227,0.32565295661506277,13.738260509079943,1.6605367908053652
2.755,-12.670093733499998,-4.553815994,2.3990007894999996,0.2884050123836258,-1.5420622731876132,0.13728498096799596,13.67566159682623,1.5747954380032765
2.7600000000000002,-12.617432023000001,-4.8267350635,2.2936773684999996,0.5172134885298776,-1.4633097012120502,-0.046825962100531464,13.702478538535113,1.5527323481866362
2.765,-12.6126267645,-5.056504873,2.1787434305,0.7385722012969168,-1.3877496855042355,-0.22668004712344472,13.762031767409978,1.5883078825937889
2.77,-12.62704254,-5.166731618999999,2.044686525,0.9460962126821727,-1.3089969389957472,-0.4086623866362399,13.795581246009919,1.666005995248221
2.775,-12.62704254,-5.166731618999999,2.044686525,0.9460962126821727,-1.3089969389957472,-0.4086623866362399,13.795581246009919,1.666005995248221
2.7800000000000002,-12.607821505999999,-5.1044593915,1.8291363579999997,1.1099868182346448,-1.2345012250657985,-0.5938376314826334,13.724372795242271,1.76315261503607
2.7840000000000003,-12.445031116,-4.8985197414999995,1.5466067714999998,1.2142808875497433,-1.1621339401586566,-0.780077003573968,13.463516912074759,1.8529850242897854
2.79,-12.176917305,-4.175475436999999,1.0678461184999999,1.2408865121342196,-0.9971790328283182,-1.1557484785573102,12.917128377104344,1.9672111999469164
2.795,-12.210456048,-3.8786281414999997,0.9720351479999999,1.1780972450961724,-0.8982061233367001,-1.343052152426511,12.848495845394622,1.9996190744839926
2.8000000000000003,-12.196040272499998,-3.629637298,0.8331729839999998,1.0823170664052277,-0.801361468334964,-1.5292916990507706,12.751934851807471,2.0377250884134446
2.805,-12.196040272499998,-3.629637298,0.8331729839999998,1.0823170664052277,-0.801361468334964,-1.5292916990507706,12.751934851807471,2.0377250884134446
2.81,-12.085911593,-3.4859698755,0.646454368,0.9727018372666489,-0.6960032717749247,-1.7123383403414318,12.595203382899841,2.088701034218771
2.815,-11.760330813,-3.284835484,0.6751878524999999,0.8460590014126884,-0.5757457229893854,-1.887935392785806,12.229121130494468,2.147463391712488
2.8200000000000003,-11.468190709499998,-3.131655611,0.7469725305,0.7226088963594011,-0.4352681857536414,-2.0560830309168177,11.91153361144951,2.2224084774521327
2.825,-11.257543867499999,-3.270517775,0.8571012100000001,0.6332140047368775,-0.30756104812181473,-2.2061387605545812,11.754284449912774,2.315729259852716
2.83,-12.4402258575,6.928790490999999,-4.965597227499999,-0.35757956649009426,0.4054698303684918,-2.5828745373157895,15.08060054770828,2.638846301932826
2.835,-11.286277351999999,0.29684729549999994,-1.6376124834999999,-1.5154566486031367,1.2345012250657985,-2.6531132186671993,11.408328073351889,3.295392522834121
2.8400000000000003,-11.286277351999999,0.29684729549999994,-1.6376124834999999,-1.5154566486031367,1.2345012250657985,-2.6531132186671993,11.408328073351889,3.295392522834121
2.845,-2.1739381719999997,-5.286372749,-1.4605043845,-1.8549444811329083,1.3505017412727984,-2.702067784323463,5.899560752648645,3.544833464684202
2.85,-0.6991160785,-7.0820684305,-1.0198915999999998,-1.2632352786730818,1.655934360371806,-2.428561949632412,7.189202697187812,3.1993429197800323
2.855,-4.754852319,-7.3119363065,5.8801654065,-0.20539540782952348,2.0571473326946834,-1.8038616609867626,10.519000823919155,2.743712687937319
2.8600000000000003,0.2825295865,-0.9672298894999999,13.101096000999998,0.5108280269285311,2.069917906831526,-1.16532667095933,13.139789688340075,2.429710201683867
2.865,-1.7716693889999997,5.492312398999999,15.978857443499997,0.6715260762132556,2.0731106376321993,-0.5810668828128657,16.989060983816145,2.2552990287764536
2.869,-5.310300975,9.9742456485,16.395542002,0.3416162615525785,2.029477406332341,-0.2862765833608187,19.91227436133435,2.0778437128791354
2.875,-4.5633284445,10.740341146499999,14.063520632,-0.15431258768337786,1.8027975337418216,-0.38524949285243676,18.274613730590133,1.8499482409316736
2.88,-7.043724429,7.5943678265,12.397174664,-0.5182776157748186,1.7283016452789477,-0.6513057386972003,16.154826404687647,1.9182902359515501
2.8850000000000002,-15.207956687,9.021333468,19.220641733999997,-1.2259873344416448,1.655934360371806,-0.8843710728890664,26.11703415017309,2.242158724228566
2.89,-12.3541234705,13.15856297,20.173553914499998,-2.141221064493727,1.2430149411570268,-0.9801514261129364,27.069252366865477,2.6628200481974895
2.895,-15.945416767,1.355082897,12.148183820499998,-1.3334741345574164,0.7417649320975901,-0.5544612582283894,20.091563793486173,1.6235134027471414
2.9,-14.987699327999998,-7.709301764499999,9.7779165155,-0.4118551174369131,0.40972668841410603,-0.12877126487676763,19.485176833345445,0.5950484313194397
2.9050000000000002,-7.7715739919999995,-7.852969187,12.4929856345,-0.29266187042923997,0.22348731632277152,-0.1479273006149566,16.67756509293025,0.3968375451334255
2.9090000000000003,-5.664713306,-7.2591765295,14.068325890499999,-0.17134019439875972,0.03192678440795667,-0.0553396781917598,16.813756691677494,0.1828640526774042
2.915,-2.61445289,-3.8498946569999997,11.985393430499999,-0.0851380335769094,-0.10003721126948419,-0.05214694739108658,12.857165646747303,0.14133376285278446
2.92,-2.327118045,1.283298219,9.509802704499998,-0.05640397996962595,-0.03937637325424407,-0.04576166032266532,9.874141997802578,0.08261983589041141
2.9250000000000003,-3.294446001,3.4476258739999994,8.686142170999998,-0.04469753307772438,0.03831207147637793,-0.007449588846287397,9.909014301907316,0.05933953705603109
2.93,-3.8354788815,1.5226785454999998,8.667019203499999,-0.04469753307772438,0.0627892670380472,0.029798355385149588,9.599305708080987,0.08263354949455541
2.935,-4.0366132729999995,-1.527483804,9.356524765,-0.03405521343076376,0.03618364245357084,0.04576166032266532,10.303980258390462,0.0675510406915373
2.94,-4.012685047,-2.7724380215,9.758793548,-0.032990911652897616,-0.009578017869094483,0.032990911652897616,10.909725266108339,0.04762918149285462
2.9450000000000003,-3.7397659775,-1.5658278055,9.356524765,-0.0553396781917598,-0.0425689295219921,0.01702760671538188,10.197167349857596,0.0718646862754551
2.95,-3.5482421029999998,0.26340661899999995,8.8298095935,-0.07662414295275587,-0.054275550946818865,0.00851371609122834,9.51971336364176,0.09428455905134805
2.955,-3.5195086184999997,1.0246968585,8.6909474295,-0.08194530277623617,-0.0553396781917598,0.00851371609122834,9.43236512174164,0.099247146010042
2.96,-3.529021069,0.42619700899999996,8.8058813675,-0.06811042686152752,-0.0553396781917598,0.009578017869094483,9.496271913462152,0.0882793784296634
2.9650000000000003,-3.643955007,-0.73746008,9.073995178499999,-0.0553396781917598,-0.0553396781917598,0.011706446891901567,9.80610238382586,0.07913280522999283
2.97,-3.7349607189999996,-1.0630408599999999,9.145877922999999,-0.04895439112333855,-0.054275550946818865,0.009578017869094483,9.936149678065508,0.0737163907631012
2.975,-3.5673650704999997,-0.46924820249999993,9.136267406,-0.04789008934547241,-0.054275550946818865,0.007449588846287397,9.819249947715504,0.07276532458579973
2.98,-3.6104162639999995,-0.26340661899999995,9.1314621475,-0.026605624584476358,-0.04576166032266532,0.02128446476099605,9.822835109962604,0.05705275852383631
2.9850000000000003,-3.6487602655,-0.612915625,9.1410726645,-0.009578017869094483,-0.03937637325424407,0.0276699263623425,9.861456611278573,0.049069970673067426
2.99,-3.6487602655,-0.9193734375,9.203344891999999,-0.00425685804561417,-0.0351195152086299,0.026605624584476358,9.942849500710281,0.0442646636544297
2.994,-3.596098555,-0.90025047,9.217662600999999,0.001064301777866142,-0.03405521343076376,0.0276699263623425,9.935173856147781,0.04389208499247556
3.0,-3.5195086184999997,-0.5698644315,9.217662600999999,0.007449588846287397,-0.01809190849324802,0.02234876653886219,9.883167013253326,0.02970321350822762
3.005,-3.5769755874999998,-0.4931764285,9.193734375,0.029798355385149588,0.001064301777866142,0.01809190849324802,9.877384729838948,0.03487680998689677
3.01,-3.6248320394999998,-0.521909913,9.217662600999999,0.060660838015240116,0.012770748669767708,0.015963304937515736,9.91852313087727,0.06401293927656883
3.0149999999999997,-3.6248320394999998,-0.6512596264999999,9.184123858,0.0851380335769094,0.019156035738188967,0.014899177692574794,9.89503296885763,0.08852922660037556
3.0200000000000005,-3.5912932964999995,-0.7421672719999999,9.0979234045,0.10322976753723222,0.02128446476099605,0.01702760671538188,9.809200277049227,0.10676775138779876
3.0250000000000004,-3.605709072,-0.7039213369999999,9.0979234045,0.10642249833790543,0.02234876653886219,0.023412893783803134,9.81166924813183,0.11123569172537068
3.0300000000000002,-3.5912932964999995,-0.6416491095,9.064482728,0.1074868001157716,0.023412893783803134,0.0276699263623425,9.771077128311816,0.11343368379523315
3.034,-3.4955803924999995,-0.6177208835,9.045261693999999,0.1074868001157716,0.024477195561669274,0.03405521343076376,9.71686268727135,0.11537895329524753
3.04,-3.4620416494999997,-0.5123974625,9.011821017499999,0.10429406931509835,0.0276699263623425,0.03831207147637793,9.667533376922153,0.11450193247282375
3.045,-3.399769422,-0.36873004,8.930327755999999,0.10429406931509835,0.029798355385149588,0.04469753307772438,9.562695634325532,0.1173160873077366
3.05,-3.366230679,-0.38304774899999994,8.892081821,0.10642249833790543,0.03405521343076376,0.04576166032266532,9.515637323564484,0.12074616047636197
3.0549999999999997,-3.4045746804999997,-0.41178123349999995,8.983087532999999,0.09897290949161804,0.04150480227705115,0.04469753307772438,9.615433124144978,0.1162589991722249
3.0600000000000005,-3.390158905,-0.3303860385,9.002210500499999,0.09684448046881096,0.04789008934547241,0.04363323129985824,9.62507798570479,0.11651683538638596
3.0650000000000004,-3.4428206154999996,-0.29684729549999994,8.94954879,0.10322976753723222,0.05853240899243303,0.04469753307772438,9.593516334063747,0.12680811200977138
3.0700000000000003,-3.481164617,-0.2393803265,8.94954879,0.10961522913857867,0.0627892670380472,0.04789008934547241,9.605739616289755,0.13509793178208035
3.075,-3.4045746804999997,-0.20113439149999998,9.040554501999999,0.12238597780834638,0.06917455410646846,0.04895439112333855,9.662463945711684,0.14886228169079835
3.08,-3.4045746804999997,-0.32558077999999996,9.078800437,0.13622085372305504,0.07981687375342908,0.05640397996962595,9.701636407033531,0.1676551916321793
3.085,-3.4620416494999997,-0.588987399,9.0836056955,0.1426061407914763,0.09578017869094482,0.060660838015240116,9.738815686230717,0.1821814789988787
3.09,-3.4620416494999997,-0.636843851,9.121949697,0.14154201354653534,0.11174365816138576,0.060660838015240116,9.777590129885153,0.1902643529587385
3.0949999999999998,-3.653565524,-0.751777789,9.169806149,0.1383492827458621,0.11600051620699993,0.060660838015240116,9.899447241762205,0.19046359511805966
3.1000000000000005,-3.6966167175,-0.8715169855,8.9208153055,0.1330281229223818,0.11174365816138576,0.060660838015240116,9.695641429372197,0.18401865094672376
3.1050000000000004,-3.5482421029999998,-0.541130947,8.94954879,0.11493638896205899,0.10429406931509835,0.060660838015240116,9.642472103557958,0.16663542141649074
3.1100000000000003,-3.505092843,-0.4165864919999999,8.963866499,0.10322976753723222,0.10322976753723222,0.05108282014614563,9.633801054374187,0.15466811024146337
3.115,-3.552949295,-0.42619700899999996,8.925620563999999,0.10003721126948419,0.10642249833790543,0.04469753307772438,9.616225612776626,0.15274508585971322
3.1189999999999998,-3.605709072,-0.46924820249999993,8.896887079499999,0.0904591934003897,0.10642249833790543,0.03937637325424407,9.611239852007992,0.14511758195955493
3.125,-3.6344425565,-0.474053461,8.9208153055,0.08407373179904325,0.09897290949161804,0.03831207147637793,9.644420412613055,0.13539514028451893
3.13,-3.6104162639999995,-0.5027869455,8.896887079499999,0.07449571392994878,0.09258762242319679,0.037247944231436986,9.614702284381714,0.12453709716137379
3.135,-3.620026781,-0.545838139,8.930327755999999,0.06598199783872043,0.08833076437758261,0.03405521343076376,9.651595049458312,0.1153936979914059
3.1399999999999997,-3.5816827795,-0.49798168699999995,8.868153594999999,0.05640397996962595,0.08620216082185034,0.0276699263623425,9.577086481705468,0.10666698791879131
3.1450000000000005,-3.6391497484999995,-0.4931764285,8.8729588535,0.04363323129985824,0.0830096045541023,0.0276699263623425,9.602917926210743,0.09777565211642839
3.1500000000000004,-3.67749375,-0.5123974625,8.94954879,0.03937637325424407,0.07875274650848814,0.02234876653886219,9.689217459911609,0.09084030613717847
3.1550000000000002,-3.629637298,-0.4931764285,8.925620563999999,0.03086248263009053,0.07023885588433461,0.015963304937515736,9.648014943871118,0.07836336398190853
3.159,-3.620026781,-0.521909913,8.9351330145,0.01809190849324802,0.06598199783872043,0.010642319646960623,9.654718320036723,0.06924016290553518
3.165,-3.6487602655,-0.5315204299999999,8.925620563999999,0.007449588846287397,0.06704612508366137,0.0031927308006732273,9.657259854384092,0.06753423422737732
3.17,-3.7062272344999996,-0.6847003029999998,8.892081821,-0.00425685804561417,0.05746810721456689,-0.006385287068421255,9.657849342893918,0.057978237970738755
3.175,-3.6726884914999998,-0.5841821405,8.801076109,-0.026605624584476358,0.04150480227705115,-0.02128446476099605,9.554519883557012,0.05369856899163409
3.1799999999999997,-3.4428206154999996,-0.028733484499999996,8.753219657,-0.05214694739108658,0.02554132280661022,-0.03192678440795667,9.405992439255654,0.0662644916644832
3.1850000000000005,-3.4188923895,-0.17720616549999998,8.743609139999998,-0.05746810721456689,0.024477195561669274,-0.0351195152086299,9.389937592399843,0.07165958971329897
3.1900000000000004,-3.629637298,-0.5027869455,8.9208153055,-0.060660838015240116,0.029798355385149588,-0.037247944231436986,9.644065913422669,0.07716922056000769
3.1950000000000003,-3.5625598119999995,-0.33999655549999996,8.9208153055,-0.07130315766220074,0.024477195561669274,-0.03937637325424407,9.611887212544287,0.08505158532221728
3.2,-3.4955803924999995,-0.40226878299999996,8.8298095935,-0.07449571392994878,0.028734053607283445,-0.0351195152086299,9.505074429570312,0.08722750471685058
3.205,-3.596098555,-0.46444294399999997,8.8537378195,-0.07981687375342908,0.0351195152086299,-0.03405521343076376,9.567460762498536,0.09361555023645855
3.21,-3.629637298,-0.483663978,8.848932561,-0.08407373179904325,0.032990911652897616,-0.03405521343076376,9.576628071914119,0.09652227821659425
3.215,-3.6344425565,-0.49798168699999995,8.8729588535,-0.0904591934003897,0.03192678440795667,-0.03618364245357084,9.601383091669119,0.10252531987021112
3.2199999999999998,-3.6344425565,-0.5123974625,8.868153594999999,-0.09578017869094482,0.028734053607283445,-0.03192678440795667,9.597701393593473,0.10497051028459234
3.2250000000000005,-3.643955007,-0.541130947,8.868153594999999,-0.0979087822466771,0.028734053607283445,-0.03192678440795667,9.602883888673906,0.10691629922685135
3.2300000000000004,-3.653565524,-0.5363256885,8.8298095935,-0.1074868001157716,0.02554132280661022,-0.03086248263009053,9.5708789429065,0.11470947739368331
3.2350000000000003,-3.663176041,-0.565059173,8.858543078,-0.11812894522980702,0.01702760671538188,-0.029798355385149588,9.602704621153855,0.12301353208171913
3.24,-3.663176041,-0.5841821405,8.844225369,-0.13196399567744085,0.009578017869094483,-0.03405521343076376,9.590643870893068,0.13662354168762864
3.2439999999999998,-3.6487602655,-0.6512596264999999,8.848932561,-0.14899160239282275,-0.002128429022807085,-0.04150480227705115,9.593810402823612,0.15467926947636915
3.25,-3.67749375,-0.7660954979999999,8.858543078,-0.1755972269772991,-0.01809190849324802,-0.04895439112333855,9.622091667518381,0.183189070867511
3.255,-3.7636942035,-0.809244758,8.777147883,-0.21071656765300378,-0.04363323129985824,-0.060660838015240116,9.584289024015362,0.22357340634753733
3.26,-3.7253502019999996,-0.7660954979999999,8.733998623,-0.2564782279756691,-0.07662414295275587,-0.077688444730622,9.526167560260694,0.2787253758692354
3.2649999999999997,-3.653565524,-0.5363256885,8.8201990765,-0.30330419007620063,-0.10322976753723222,-0.09684448046881096,9.562013283372798,0.33470684190922206
3.2700000000000005,-3.5195086184999997,-0.20593965,8.9351330145,-0.3331025454613502,-0.1308996938995747,-0.1074868001157716,9.605516854492826,0.373691648093667
3.2750000000000004,-3.5769755874999998,-0.043051193499999994,8.963866499,-0.3299098146606769,-0.15218415866057075,-0.10961522913857867,9.651295787132796,0.3794944036685799
3.2800000000000002,-3.605709072,-0.26340661899999995,9.030943985,-0.30756104812181473,-0.15963374750685816,-0.10429406931509835,9.727716598413206,0.36187564792228716
3.284,-3.5434368444999995,-0.3064578125,9.1553903735,-0.2713774056682439,-0.15963374750685816,-0.0904591934003897,9.821966908566678,0.32758433314332824
3.29,-3.4859698755,-0.5123974625,9.2224678595,-0.2256157453455786,-0.14473456981428337,-0.060660838015240116,9.87261113140695,0.2748277597257559
3.295,-3.552949295,-1.0630408599999999,9.1553903735,-0.18623937209133454,-0.11493638896205899,-0.04150480227705115,9.877989545147686,0.22275126450071925
3.3,-3.596098555,-0.7996342409999999,9.136267406,-0.1702760671538188,-0.0904591934003897,-0.0351195152086299,9.851026436396905,0.1959851654195034
3.3049999999999997,-3.505092843,-0.5937926575,9.1075339215,-0.14686299883709047,-0.07343158668500784,-0.020220337516055103,9.776780640344954,0.16543820719460256
3.3100000000000005,-3.5434368444999995,-0.6320385924999999,9.064482728,-0.12451440683115346,-0.054275550946818865,-0.007449588846287397,9.752961836261834,0.13603370653287902
3.3150000000000004,-3.5434368444999995,-0.660772077,9.073995178499999,-0.11600051620699993,-0.04363323129985824,0.0,9.763705900330276,0.12393538088034983
3.3200000000000003,-3.4763593585,-0.565059173,9.0932162125,-0.1074868001157716,-0.03937637325424407,0.002128429022807085,9.751458729118163,0.11449210094976207
3.325,-3.4476258739999994,-0.5363256885,9.007015759,-0.09897290949161804,-0.03405521343076376,0.00425685804561417,9.659197808001117,0.10475454746917386
3.33,-3.4285029064999994,-0.588987399,9.0836056955,-0.08620216082185034,-0.024477195561669274,0.00851371609122834,9.726943547043941,0.09001349340294705
3.335,-3.4715540999999996,-0.5841821405,9.088410954,-0.07981687375342908,-0.010642319646960623,0.0053211598234803115,9.746392681976916,0.08069886644250922
3.34,-3.4620416494999997,-0.5315204299999999,9.06918992,-0.07556001570781491,-0.0053211598234803115,0.0053211598234803115,9.722060077751507,0.07593382288216022
3.3449999999999998,-3.4524311324999997,-0.483663978,9.064482728,-0.06704612508366137,0.0031927308006732273,0.0031927308006732273,9.711748488015962,0.06719799065943192
3.3500000000000005,-3.4428206154999996,-0.5315204299999999,9.078800437,-0.05640397996962595,0.00851371609122834,-0.001064301777866142,9.724204087373453,0.05705282689201627
3.3550000000000004,-3.5002875845,-0.5985979159999999,9.054872211,-0.05108282014614563,0.019156035738188967,-0.00851371609122834,9.726306770649607,0.05521676901964
3.3600000000000003,-3.552949295,-0.69431082,9.0357492435,-0.04895439112333855,0.028734053607283445,-0.013834875914708653,9.733975580358772,0.058425867888619615
3.365,-3.5195086184999997,-0.636843851,9.0932162125,-0.04363323129985824,0.03831207147637793,-0.019156035738188967,9.771340342733188,0.06114431616823262
3.3689999999999998,-3.481164617,-0.612915625,8.997405242,-0.0351195152086299,0.04469753307772438,-0.023412893783803134,9.666823353242313,0.06147693394318799
3.375,-3.5338263275,-0.588987399,8.9925999835,-0.032990911652897616,0.054275550946818865,-0.03086248263009053,9.679963281560376,0.07061677220294528
3.38,-3.5577545534999997,-0.6081103664999999,9.016528209499999,-0.0276699263623425,0.06172513979310626,-0.037247944231436986,9.712115970966574,0.07722063880106281
3.385,-3.5002875845,-0.6033051079999999,9.011821017499999,-0.02128446476099605,0.07236728490714169,-0.037247944231436986,9.686532314455905,0.08412765130717569
3.3899999999999997,-3.4715540999999996,-0.5698644315,9.0261387265,-0.020220337516055103,0.0851380335769094,-0.03831207147637793,9.687497801266263,0.09552571188647185
3.3950000000000005,-3.5002875845,-0.6033051079999999,9.050066952499998,-0.011706446891901567,0.09684448046881096,-0.04150480227705115,9.722124360049934,0.10601199417124428
3.4000000000000004,-3.5195086184999997,-0.627233334,9.030943985,-0.010642319646960623,0.1106793563835196,-0.04363323129985824,9.71279114524678,0.11944470591284133
3.4050000000000002,-3.4428206154999996,-0.627233334,9.06918992,-0.007449588846287397,0.12345010505328732,-0.04469753307772438,9.720938290660122,0.1315039705669782
3.409,-3.4428206154999996,-0.627233334,9.06918992,-0.007449588846287397,0.12345010505328732,-0.04469753307772438,9.720938290660122,0.1315039705669782
3.415,-3.596098555,-0.6416491095,9.054872211,0.00851371609122834,0.16069804928472428,-0.0425689295219921,9.76393102979201,0.16645858393680407
3.42,-3.5721703289999995,-0.660772077,9.064482728,0.01702760671538188,0.17666135422224005,-0.04576166032266532,9.765340123279945,0.18328475938161495
3.425,-3.5816827795,-0.612915625,9.073995178499999,0.01809190849324802,0.18836780111414161,-0.04469753307772438,9.77453352318039,0.19444180392276536
3.4299999999999997,-3.5338263275,-0.6751878524999999,9.0932162125,0.020220337516055103,0.20113854978390933,-0.04469753307772438,9.779079109832814,0.20703489493723423
3.4350000000000005,-3.6248320394999998,-0.6655773355,9.045261693999999,0.023412893783803134,0.213909298453677,-0.046825962100531464,9.76724933730376,0.22022266524342204
3.4400000000000004,-3.67749375,-0.6655773355,9.002210500499999,0.02554132280661022,0.2256157453455786,-0.046825962100531464,9.747140471242465,0.23183505870595336
3.4450000000000003,-3.67749375,-0.6655773355,9.002210500499999,0.02554132280661022,0.2256157453455786,-0.046825962100531464,9.747140471242465,0.23183505870595336
3.45,-3.6152215224999997,-0.6655773355,8.954354048499999,0.02554132280661022,0.23519376321467306,-0.050018518368279495,9.679528721594188,0.24180636386486828
3.455,-3.7110324929999994,-0.718239046,9.045261693999999,0.029798355385149588,0.25222136993005495,-0.050018518368279495,9.803284582436874,0.25885403920513045
3.46,-3.5912932964999995,-0.612915625,9.050066952499998,0.02554132280661022,0.2617993877991494,-0.05108282014614563,9.755857981212497,0.26795658815711987
3.465,-3.6009038135,-0.6177208835,8.9686717575,0.024477195561669274,0.28095542353733843,-0.054275550946818865,9.684273873542043,0.2871949138619801
3.4699999999999998,-3.667883233,-0.646454368,8.973477015999999,0.02554132280661022,0.2958546012299132,-0.05640397996962595,9.715686307076256,0.30226431015923194
3.4750000000000005,-3.667883233,-0.646454368,8.973477015999999,0.02554132280661022,0.2958546012299132,-0.05640397996962595,9.715686307076256,0.30226431015923194
3.4800000000000004,-3.67749375,-0.6751878524999999,9.016528209499999,0.023412893783803134,0.30543261909900765,-0.0553396781917598,9.761025554221334,0.3112872120524367
3.4850000000000003,-3.6391497484999995,-0.6512596264999999,9.007015759,0.02234876653886219,0.31713906599090924,-0.053211249168952715,9.736215017962106,0.3223477804817574
3.49,-3.6583707824999996,-0.6895055615,9.054872211,0.02234876653886219,0.33523097448415723,-0.05214694739108658,9.790291387856088,0.33999790843711813
3.4939999999999998,-3.6583707824999996,-0.6751878524999999,9.040554501999999,0.01702760671538188,0.3522585811995391,-0.04895439112333855,9.776051407498105,0.35605137245827717
3.5,-3.5721703289999995,-0.9433016634999999,9.073995178499999,0.014899177692574794,0.4065339576134328,-0.03618364245357084,9.797326542847854,0.408412904019894
3.505,-3.5721703289999995,-0.9433016634999999,9.073995178499999,0.014899177692574794,0.4065339576134328,-0.03618364245357084,9.797326542847854,0.408412904019894
3.51,-3.366230679,-1.1587537639999999,9.203344891999999,0.04044050049918502,0.4416534728220627,-0.037247944231436986,9.867916521278818,0.4450625051449305
3.5149999999999997,-3.2464914824999997,-0.38304774899999994,8.939938273,0.06917455410646846,0.4927362929682083,-0.04895439112333855,9.51887224670072,0.4999707048959344
3.5200000000000005,-3.6391497484999995,-0.5171046545,8.892081821,0.06704612508366137,0.5438191131143539,-0.046825962100531464,9.621846352289765,0.5499337063718288
3.5250000000000004,-3.7205449434999998,-1.0007686325,8.954354048499999,0.07981687375342908,0.5693604359209642,-0.04576166032266532,9.748048469221297,0.5767461910436584
3.5300000000000002,-3.6966167175,-0.6416491095,8.892081821,0.07981687375342908,0.5949019332604996,-0.04576166032266532,9.651207584918133,0.6019743957082707
3.534,-3.7588889449999994,-0.761388306,8.882471304,0.077688444730622,0.6257644158905901,-0.037247944231436986,9.675084222875798,0.631667640447904
3.54,-3.6248320394999998,-0.7326548214999999,8.9015942715,0.07662414295275587,0.6566268985206807,-0.0351195152086299,9.639220454811403,0.6620147456761231
3.545,-3.6966167175,-0.6416491095,8.892081821,0.07449571392994878,0.6949389699970586,-0.032990911652897616,9.651207584918133,0.6996986377478485
3.55,-3.8402841399999996,-0.636843851,8.834614852,0.07236728490714169,0.7311226124506294,-0.03405521343076376,9.654210063473398,0.7354842322737309
3.5549999999999997,-3.7062272344999996,-0.775706015,9.06918992,0.09258762242319679,0.7651778258813932,-0.028734053607283445,9.827921750832488,0.7712945085265823
3.5600000000000005,-3.481164617,-0.6416491095,8.94954879,0.12664283585396055,0.8088110571812513,-0.03192678440795667,9.62416979354403,0.8192881383581839
3.5650000000000004,-3.6487602655,-0.44051471799999997,8.896887079499999,0.1308996938995747,0.8662793389287435,-0.03405521343076376,9.626115748173833,0.8767749885116695
3.5700000000000003,-3.7876224295,-0.7087265955,9.007015759,0.13728498096799596,0.9205547153426371,-0.03192678440795667,9.796668308077743,0.9312827011716576
3.575,-3.792427688,-0.6895055615,8.9015942715,0.15005572963776367,0.9695091064659758,-0.03618364245357084,9.700325059628161,0.9817198610086201
3.58,-3.8546999154999995,-0.6559668185,8.868153594999999,0.15963374750685816,1.0248487846577354,-0.03405521343076376,9.69191168397856,1.0377657357608872
3.585,-3.9025563675,-0.7326548214999999,8.9351330145,0.1702760671538188,1.0812527646273615,-0.028734053607283445,9.777695601510095,1.094955307716434
3.59,-3.830673623,-0.7230443045,8.90639953,0.17666135422224005,1.1376567445969874,-0.02554132280661022,9.722181136977548,1.1515747747208438
3.5949999999999998,-4.0892749835,-0.8235624669999999,8.868153594999999,0.18836780111414161,1.2047028696806488,-0.02128446476099605,9.800233324377611,1.2195263265520466
3.6000000000000005,-4.108496017499999,-0.761388306,8.882471304,0.20007442253896837,1.2664278349408298,-0.015963304937515736,9.816198253127855,1.282234012484362
3.6050000000000004,-4.1802806955,-0.7805112734999999,8.90639953,0.20433128058458253,1.3292172765118022,-0.009578017869094483,9.869543916980904,1.3448648924070734
3.6100000000000003,-4.151547211,-0.8331729839999998,8.848932561,0.21710185472142504,1.3845569547035619,-0.00425685804561417,9.809848568431388,1.4014811083214445
3.615,-4.1898912125,-0.8763222439999999,8.8776660455,0.24264335206096047,1.4505389525422825,0.002128429022807085,9.855763971572042,1.4706949307561874
3.6189999999999998,-4.161157727999999,-0.7421672719999999,8.939938273,0.25967095877634233,1.5250346664722314,0.009578017869094483,9.888808938490632,1.5470137294801865
3.625,-4.16586492,-0.6799931109999999,8.8633483365,0.27457013646891715,1.6037872384477943,0.010642319646960623,9.817115915421972,1.6271556548210224
3.63,-4.2712864075,-0.5841821405,8.930327755999999,0.2788269945145313,1.6889254465576287,0.00425685804561417,9.916446449094423,1.7117919785243512
3.635,-4.223331889,-0.43570945949999995,8.973477015999999,0.2852122815829526,1.772999178356672,-0.007449588846287397,9.927218378499706,1.7958083495721826
3.6399999999999997,-4.242552923,-0.450125235,8.8776660455,0.30011145927552735,1.8613299427342547,-0.019156035738188967,9.8496102687905,1.8854662546470549
3.6450000000000005,-4.2377476645,-0.5363256885,8.94954879,0.3118179061674289,1.9613669794708137,-0.03405521343076376,9.916681605089005,1.986290661591832
3.6500000000000004,-4.300019892,-0.545838139,8.9208153055,0.3160749387459683,2.069917906831526,-0.04789008934547241,9.918117566374464,2.094458633772124
3.6550000000000002,-4.2520653735,-0.4931764285,9.021333468,0.2990473320305864,2.189111153839199,-0.0627892670380472,9.985376330965329,2.2103346902025893
3.659,-4.3862203455,-0.5267151715,9.0596774695,0.28308385256014545,2.315753815160235,-0.08088117553129522,10.079390539240572,2.334393703847918
3.665,-4.2520653735,-0.36392478149999996,9.06918992,0.2628636895770156,2.459424432262502,-0.10855092736071252,10.023108649123639,2.4758128283734706
3.67,-4.1945984045,-0.148472681,9.11233918,0.22455144356771245,2.616929750746553,-0.1479273006149566,10.032518389885977,2.6307084896312607
3.675,-4.20901418,-0.047856451999999994,9.1410726645,0.17666135422224005,2.7872058179003725,-0.20007442253896837,10.063662358461169,2.7999562996531964
3.6799999999999997,-4.1324242435,-0.1005181625,9.121949697,0.1074868001157716,2.9702526337239585,-0.2649921185998227,10.014839005388819,2.9839864180762055
3.6850000000000005,-4.371804569999999,-0.10532342099999999,9.007015759,0.046825962100531464,3.17351943799775,-0.3309741164385431,10.012497246149852,3.191075392376129
3.6900000000000004,-4.2856041165,-0.12454445499999998,9.064482728,-0.028734053607283445,3.3959426270755806,-0.40972668841410603,10.027300787891193,3.4206911482074043
3.6950000000000003,-4.3478763439999994,0.1579851315,9.073995178499999,-0.13622085372305504,3.6364575501137337,-0.49592884923595637,10.06311962086962,3.6726455121986272
3.7,-4.5585231859999995,0.0383440015,8.939938273,-0.24477178108376757,3.902513621425572,-0.5757457229893854,10.03514325880806,3.952342207826597
3.705,-4.864980998499999,0.1579851315,8.623869943499999,-0.3639650280914407,4.19304723736493,-0.6630121855891019,9.902733573107165,4.26071600023833
3.71,-4.965597227499999,0.5937926575,8.5616957825,-0.5001858818144957,4.52082827393695,-0.7513429499666846,9.915259967239127,4.610053191369806
3.715,-5.291178007499999,0.8858346944999999,8.7580249155,-0.5831953118356729,4.8209399077454025,-0.8439305723898813,10.270553453127555,4.928873824399816
3.7199999999999998,-6.4020753195,0.6991160785,8.8298095935,-0.6066083801524013,5.085932026345225,-0.9216190171205033,10.928900637540488,5.204234806020318
3.7250000000000005,-7.331059273999999,0.40226878299999996,8.868153594999999,-0.6332140047368775,5.3530529230337045,-0.9876010149592237,11.513053393309226,5.480099573670454
3.7300000000000004,-8.671824461999998,0.38304774899999994,9.232078376499999,-0.6502416114522594,5.597824529584547,-1.0557114418207514,12.671958657902668,5.733496338681463
3.7350000000000003,-11.080337702,0.17720616549999998,10.280703461,-0.6257644158905901,5.811733828038225,-1.0812527646273615,15.116155240949043,5.944488096814816
3.74,-13.7235240765,0.5745716235,12.741976478,-0.5480759711599681,5.897936163393,-1.0482618529744638,18.735613419226816,6.015387865302065
3.7439999999999998,-14.6669238065,-0.019122967499999997,13.8480685315,-0.3948275107215312,5.798962904835531,-0.9588669613519404,20.171465531455144,5.890949446774553
3.75,-14.298193766499999,-0.6225261419999999,13.1776859375,-0.17878978324504713,5.618044867100603,-0.85776544830459,19.454492808840794,5.685961262588184
3.755,-13.6995958505,-0.8763222439999999,12.607821505999999,0.10855092736071252,5.4626679776393585,-0.721544594581535,18.63877759590264,5.51118420484447
3.76,-13.148952452999998,-1.5993665485,11.750720295999999,0.4235615643288147,5.336025141785398,-0.6183148270443027,17.70684476247933,5.388402540446044
3.7649999999999997,-11.477801226499999,-1.072651377,10.251969976499998,0.6640764873669681,5.254079664476237,-0.524663077376165,15.427034399737439,5.3218062766788305
3.7700000000000005,-9.998173874499999,-0.40226878299999996,9.596003157999998,0.9067198394279286,5.259400649766792,-0.4033414013456848,13.863930813692651,5.352207053918884
3.7750000000000004,-9.562464414999999,-0.2346731345,9.9024609705,1.112115247257452,5.3147406770244014,-0.3160749387459683,13.767880390258812,5.439041473835584
3.7800000000000002,-10.0795690695,0.8571012100000001,10.7595621805,1.2217304763960306,5.349859668634257,-0.3064969208768738,14.76822648211526,5.496140845497076
3.784,-11.856043716999999,1.5418995795,11.7555255545,1.125950297705086,5.334961014540457,-0.39908436876714537,16.76709897373961,5.467068815458882
3.79,-12.804150639,2.4803959845,13.1633682285,0.9429034818814993,5.200868589840209,-0.5097638996835901,18.530323821919872,5.310175166447088
3.795,-13.939074243499999,1.2641752515,15.07870504,0.7736917165055468,4.953968030667784,-0.642792022605972,20.573363252410424,5.055054866704576
3.8,-14.7865649365,-0.023928225999999997,14.2885832495,0.5257272046211059,4.597452765955556,-0.8311598237201135,20.56226365114558,4.701466545817121
3.8049999999999997,-13.474533232999999,0.565059173,10.8170291495,0.24902863912938172,4.322882804019564,-1.0142066395437002,17.28844866774765,4.4472402800039035
